timestamp,timestamp_sample,ref_timestamp,ref_lat,ref_lon,x,y,z,delta_xy[0],delta_xy[1],delta_z,vx,vy,vz,z_deriv,delta_vxy[0],delta_vxy[1],delta_vz,ax,ay,az,heading,heading_var,unaided_heading,delta_heading,tilt_var,ref_alt,dist_bottom,dist_bottom_var,delta_dist_bottom,eph,epv,evh,evv,vxy_max,vz_max,hagl_min,hagl_max_z,hagl_max_xy,xy_valid,z_valid,v_xy_valid,v_z_valid,xy_reset_counter,z_reset_counter,vxy_reset_counter,vz_reset_counter,heading_reset_counter,heading_good_for_control,xy_global,z_global,dist_bottom_valid,dist_bottom_reset_counter,dist_bottom_sensor_bitfield,dead_reckoning
1777227356549000,1777227356549000,1777227106893000,47.397742099999995,8.5455942,103.0909,-0.034973305,0.08203125,-0.0019206639,-0.002875626,-488.1121,-0.007173583,-0.009009555,-0.017785974,0.0010473479,-0.0017447465,0.0049493075,-6.0223043e-05,-0.014849643,-0.010416318,0.04899455,-0.0063481806,0.00029564914,-0.017780645,-0.0042710165,2.047655e-05,488.1121,0.010009766,1e-04,-488.1121,0.12028387,0.11296329,0.08026121,0.049271513,inf,inf,inf,inf,inf,1,1,1,1,3,2,2,1,2,1,1,1,0,2,0,0
1777227356557000,1777227356557000,1777227106893000,47.397742099999995,8.5455942,103.090805,-0.03502528,0.08203125,-0.0019206639,-0.002875626,-488.1121,-0.0071881837,-0.009209924,-0.017914942,0.0008986532,-0.0017447465,0.0049493075,-6.0223043e-05,-0.0013493386,-0.028432108,-0.023431143,-0.006292509,0.00029575222,-0.017723627,-0.0042710165,2.0520765e-05,488.1121,0.010009766,1e-04,-488.1121,0.12068861,0.113213554,0.0805615,0.049354427,inf,inf,inf,inf,inf,1,1,1,1,3,2,2,1,2,1,1,1,0,2,0,0
1777227356565000,1777227356565000,1777227106893000,47.397742099999995,8.5455942,103.09072,-0.03507993,0.08200073,-0.0019206639,-0.002875626,-488.1121,-0.006985591,-0.0095222425,-0.017648486,0.0011411494,-0.0017447465,0.0049493075,-6.0223043e-05,0.025769416,-0.042343393,0.026234424,-0.00626567,0.00029585534,-0.017695367,-0.0042710165,2.0565018e-05,488.1121,0.010009766,1e-04,-488.1121,0.1210961,0.11346466,0.080861636,0.049437217,inf,inf,inf,inf,inf,1,1,1,1,3,2,2,1,2,1,1,1,0,2,0,0
1777227356573000,1777227356573000,1777227106893000,47.397742099999995,8.5455942,103.09063,-0.03513516,0.08200073,-0.0019206639,-0.002875626,-488.1121,-0.007152473,-0.009448849,-0.017632786,0.0011288491,-0.0017447465,0.0049493075,-6.0223043e-05,-0.020400016,0.005937069,-0.0048791985,-0.0063592806,0.00029582198,-0.017787486,-0.0042710165,2.0607202e-05,488.1121,0.010009766,1e-04,-488.1121,0.12150594,0.11371661,0.08116054,0.04951988,inf,inf,inf,inf,inf,1,1,1,1,3,2,2,1,2,1,1,1,0,2,0,0
1777227356581000,1777227356581000,1777227106893000,47.397742099999995,8.5455942,103.090546,-0.035190266,0.081970215,-0.0019206639,-0.002875626,-488.1121,-0.0071712076,-0.009477639,-0.017762586,0.0009671385,-0.0017447465,0.0049493075,-6.0223043e-05,-0.0019060546,-0.006759416,-0.022842547,-0.0064125173,0.00029592507,-0.017838124,-0.0042710165,2.0651521e-05,488.1121,0.010009766,1e-04,-488.1121,0.12191894,0.113969386,0.08146001,0.049602415,inf,inf,inf,inf,inf,1,1,1,1,3,2,2,1,2,1,1,1,0,2,0,0
1777227356589000,1777227356589000,1777227106893000,47.397742099999995,8.5455942,103.090454,-0.035241764,0.08200073,-0.0019206639,-0.002875626,-488.1121,-0.0071078213,-0.009343039,-0.017664813,0.0010646969,-0.0017447465,0.0049493075,-6.0223043e-05,0.008260896,0.01294444,0.0040750015,-0.0064487285,0.0002952063,-0.017871667,-0.0042710165,2.040669e-05,488.1121,0.010009766,1e-04,-488.1121,0.11968463,0.112649105,0.07981378,0.049158294,inf,inf,inf,inf,inf,1,1,1,1,3,2,2,1,2,1,1,1,0,2,0,0
1777227356597000,1777227356597000,1777227106893000,47.397742099999995,8.5455942,103.09036,-0.03529411,0.08200073,-0.0019206639,-0.002875626,-488.1121,-0.006758088,-0.009609898,-0.017578742,0.0011454744,-0.0017447465,0.0049493075,-6.0223043e-05,0.044032913,-0.037148613,0.0028740612,-0.006436861,0.00029530915,-0.01785728,-0.0042710165,2.045084e-05,488.1121,0.010009766,1e-04,-488.1121,0.12008528,0.11289826,0.080112584,0.049241386,inf,inf,inf,inf,inf,1,1,1,1,3,2,2,1,2,1,1,1,0,2,0,0
1777227356605000,1777227356605000,1777227106893000,47.397742099999995,8.5455942,103.09028,-0.035346523,0.08203125,-0.0019206639,-0.002875626,-488.1121,-0.0067954618,-0.009314565,-0.017757727,0.0009572589,-0.0017447465,0.0049493075,-6.0223043e-05,-0.004378035,0.03322002,-0.030040273,-0.0064239874,0.00029541197,-0.01784182,-0.0042710165,2.0495023e-05,488.1121,0.010009766,1e-04,-488.1121,0.120488666,0.11308967,0.080411255,0.049314067,inf,inf,inf,inf,inf,1,1,1,1,3,2,2,1,2,1,1,1,0,2,0,0
1777227356613000,1777227356613000,1777227106893000,47.397742099999995,8.5455942,103.090195,-0.035396833,0.08203125,-0.0019206639,-0.002875626,-488.1121,-0.007128143,-0.009176452,-0.018216096,0.00048478955,-0.0017447465,0.0049493075,-6.0223043e-05,-0.04132322,0.013661917,-0.06471527,-0.0063952417,0.00029551476,-0.017810417,-0.0042710165,2.0539239e-05,488.1121,0.010009766,1e-04,-488.1121,0.12089479,0.11334036,0.08071019,0.049396917,inf,inf,inf,inf,inf,1,1,1,1,3,2,2,1,2,1,1,1,0,2,0,0
1777227356621000,1777227356621000,1777227106893000,47.397742099999995,8.5455942,103.0901,-0.03544711,0.08200073,-0.0019206639,-0.002875626,-488.1121,-0.0073612835,-0.009256968,-0.018159201,0.0005228338,-0.0017447465,0.0049493075,-6.0223043e-05,-0.028906897,-0.013579978,-6.658956e-05,-0.00630797,0.00029561768,-0.017720426,-0.0042710165,2.0583495e-05,488.1121,0.010009766,1e-04,-488.1121,0.12130367,0.1135919,0.08100962,0.04947964,inf,inf,inf,inf,inf,1,1,1,1,3,2,2,1,2,1,1,1,0,2,0,0
1777227356629000,1777227356629000,1777227106893000,47.397742099999995,8.5455942,103.09002,-0.035498727,0.08200073,-0.0019206639,-0.002875626,-488.1121,-0.007438804,-0.009471111,-0.01801329,0.0006453283,-0.0017447465,0.0049493075,-6.0223043e-05,-0.009478067,-0.030201962,0.011294614,-0.0062495107,0.00029572062,-0.017659182,-0.0042710165,2.0627787e-05,488.1121,0.010009766,1e-04,-488.1121,0.12171531,0.11384427,0.08131016,0.049562234,inf,inf,inf,inf,inf,1,1,1,1,3,2,2,1,2,1,1,1,0,2,0,0
1777227356637000,1777227356637000,1777227106893000,47.397742099999995,8.5455942,103.08993,-0.03555226,0.081970215,-0.0019206639,-0.002875626,-488.1121,-0.0075442917,-0.0096793715,-0.017826062,0.0008047571,-0.0017447465,0.0049493075,-6.0223043e-05,-0.012991955,-0.02938138,0.016686039,-0.0061922,0.00029582353,-0.017599024,-0.0042710165,2.0672116e-05,488.1121,0.010009766,1e-04,-488.1121,0.1221297,0.11409747,0.08161031,0.049644705,inf,inf,inf,inf,inf,1,1,1,1,3,2,2,1,2,1,1,1,0,2,0,0
1777227356645000,1777227356645000,1777227106893000,47.397742099999995,8.5455942,103.08984,-0.03559586,0.08200073,-0.0019206639,-0.002875626,-488.1121,-0.007764034,-0.009567373,-0.017665679,0.00096761197,-0.0017447465,0.0049493075,-6.0223043e-05,-0.02794032,0.00954695,0.011891591,-0.0061178766,0.00029591046,-0.017521793,-0.0042710165,2.0436397e-05,488.1121,0.010009766,1e-04,-488.1121,0.11988268,0.11277208,0.079962686,0.049198695,inf,inf,inf,inf,inf,1,1,1,1,3,2,2,1,2,1,1,1,0,2,0,0
1777227356653000,1777227356653000,1777227106893000,47.397742099999995,8.5455942,103.08977,-0.035637867,0.08200073,-0.0019206639,-0.002875626,-488.1121,-0.007897478,-0.009591457,-0.017775545,0.00085484,-0.0017447465,0.0049493075,-6.0223043e-05,-0.01754714,-0.0075968197,-0.021625308,-0.0061308485,0.00029520827,-0.017531877,-0.0042710165,2.0469393e-05,488.1121,0.010009766,1e-04,-488.1121,0.120282434,0.11296325,0.08025205,0.04927149,inf,inf,inf,inf,inf,1,1,1,1,3,2,2,1,2,1,1,1,0,2,0,0
1777227356661000,1777227356661000,1777227106893000,47.397742099999995,8.5455942,103.08968,-0.035680823,0.08203125,-0.0019206639,-0.002875626,-488.1121,-0.008057479,-0.00953323,-0.017739028,0.0008832181,-0.0017447465,0.0049493075,-6.0223043e-05,-0.02086512,0.002805358,-0.0030728986,-0.0061210794,0.00029531113,-0.017517462,-0.0042710165,2.0513595e-05,488.1121,0.010009766,1e-04,-488.1121,0.12068713,0.113213524,0.08055092,0.049354408,inf,inf,inf,inf,inf,1,1,1,1,3,2,2,1,2,1,1,1,0,2,0,0
1777227356669000,1777227356669000,1777227106893000,47.397742099999995,8.5455942,103.0896,-0.03572228,0.08203125,-0.0019206639,-0.002875626,-488.1121,-0.008136821,-0.009267255,-0.017680736,0.0009283514,-0.0017447465,0.0049493075,-6.0223043e-05,-0.010778682,0.028887141,-0.00010384246,-0.0061135227,0.000295414,-0.017505206,-0.0042710165,2.0557834e-05,488.1121,0.010009766,1e-04,-488.1121,0.121094555,0.11346463,0.08085151,0.049437195,inf,inf,inf,inf,inf,1,1,1,1,3,2,2,1,2,1,1,1,0,2,0,0
1777227356677000,1777227356677000,1777227106893000,47.397742099999995,8.5455942,103.089516,-0.03576336,0.08203125,-0.0019206639,-0.002875626,-488.1121,-0.008141716,-0.00943168,-0.0174422,0.0011489361,-0.0017447465,0.0049493075,-6.0223043e-05,-0.0014673346,-0.02481109,0.022666527,-0.0061592995,0.00029551692,-0.017546229,-0.0042710165,2.0602112e-05,488.1121,0.010009766,1e-04,-488.1121,0.121504754,0.11371657,0.081151485,0.04951986,inf,inf,inf,inf,inf,1,1,1,1,3,2,2,1,2,1,1,1,0,2,0,0
1777227356685000,1777227356685000,1777227106893000,47.397742099999995,8.5455942,103.08944,-0.035808064,0.08200073,-0.0019206639,-0.002875626,-488.1121,-0.008127515,-0.009961279,-0.017655449,0.00091311143,-0.0017447465,0.0049493075,-6.0223043e-05,0.0009257182,-0.070359066,-0.03357371,-0.006185884,0.0002956199,-0.0175681,-0.0042710165,2.0646426e-05,488.1121,0.010009766,1e-04,-488.1121,0.1219177,0.113969356,0.08145171,0.049602393,inf,inf,inf,inf,inf,1,1,1,1,3,2,2,1,2,1,1,1,0,2,0,0
1777227356693000,1777227356693000,1777227106893000,47.397742099999995,8.5455942,103.08935,-0.03583791,0.08203125,-0.0019206639,-0.002875626,-488.1121,-0.008175019,-0.009787979,-0.017703155,0.00085975224,-0.0017447465,0.0049493075,-6.0223043e-05,-0.0069501884,0.016138408,-0.013866461,-0.006178367,0.0002957068,-0.017555907,-0.0042710165,2.0412928e-05,488.1121,0.010009766,1e-04,-488.1121,0.11968576,0.112649076,0.07981463,0.04915827,inf,inf,inf,inf,inf,1,1,1,1,3,2,2,1,2,1,1,1,0,2,0,0
1777227356701000,1777227356701000,1777227106893000,47.397742099999995,8.5455942,103.089264,-0.035867445,0.08203125,-0.0019206639,-0.002875626,-488.1121,-0.008532559,-0.009856852,-0.017613554,0.0009393863,-0.0017447465,0.0049493075,-6.0223043e-05,-0.04570389,-0.0139925275,0.0035515984,-0.006177091,0.00029580982,-0.017550103,-0.0042710165,2.0457086e-05,488.1121,0.010009766,1e-04,-488.1121,0.120086424,0.11289823,0.08011263,0.049241364,inf,inf,inf,inf,inf,1,1,1,1,3,2,2,1,2,1,1,1,0,2,0,0
1777227356709000,1777227356709000,1777227106893000,47.397742099999995,8.5455942,103.08917,-0.035899445,0.08203125,-0.0019206639,-0.002875626,-488.1121,-0.009011463,-0.010045852,-0.01759236,0.00094842113,-0.0017447465,0.0049493075,-6.0223043e-05,-0.060864754,-0.028874014,-0.004804227,-0.006161874,0.0002959129,-0.017530398,-0.0042710165,2.050128e-05,488.1121,0.010009766,1e-04,-488.1121,0.12048982,0.11308964,0.08041244,0.049314044,inf,inf,inf,inf,inf,1,1,1,1,3,2,2,1,2,1,1,1,0,2,0,0
1777227356717000,1777227356717000,1777227106893000,47.397742099999995,8.5455942,103.08908,-0.03593087,0.08203125,-0.0019206639,-0.002875626,-488.1121,-0.009441022,-0.009683752,-0.017477712,0.0010467926,-0.0017447465,0.0049493075,-6.0223043e-05,-0.054685786,0.04014515,0.0071190293,-0.0062073134,0.00029601602,-0.017571397,-0.0042710165,2.0545513e-05,488.1121,0.010009766,1e-04,-488.1121,0.12089597,0.11334034,0.080711596,0.0493969,inf,inf,inf,inf,inf,1,1,1,1,3,2,2,1,2,1,1,1,0,2,0,0
1777227356725000,1777227356725000,1777227106893000,47.397742099999995,8.5455942,103.08899,-0.035962395,0.08203125,-0.0019206639,-0.002875626,-488.1121,-0.009736962,-0.009845488,-0.017891511,0.00061272585,-0.0017447465,0.0049493075,-6.0223043e-05,-0.037979864,-0.025176572,-0.05870219,-0.00618777,0.00029531348,-0.017547462,-0.0042710165,2.0578462e-05,488.1121,0.010009766,1e-04,-488.1121,0.12130248,0.11359187,0.081002,0.049479626,inf,inf,inf,inf,inf,1,1,1,1,3,2,2,1,2,1,1,1,0,2,0,0
1777227356733000,1777227356733000,1777227106893000,47.397742099999995,8.5455942,103.0889,-0.035995457,0.08200073,-0.0019206639,-0.002875626,-488.1121,-0.010123922,-0.009877833,-0.018436369,4.378223e-05,-0.0017447465,0.0049493075,-6.0223043e-05,-0.049356055,-0.008874225,-0.074856445,-0.0062190657,0.00029541628,-0.01757466,-0.0042710165,2.0622752e-05,488.1121,0.010009766,1e-04,-488.1121,0.12171407,0.11384424,0.08130256,0.049562223,inf,inf,inf,inf,inf,1,1,1,1,3,2,2,1,2,1,1,1,0,2,0,0
1777227356741000,1777227356741000,1777227106893000,47.397742099999995,8.5455942,103.0888,-0.036027938,0.08200073,-0.0019206639,-0.002875626,-488.1121,-0.010228689,-0.009502168,-0.018212542,0.00023985922,-0.0017447465,0.0049493075,-6.0223043e-05,-0.0140716415,0.04224703,0.02145022,-0.0062566358,0.00029551916,-0.017608212,-0.0042710165,2.0667083e-05,488.1121,0.010009766,1e-04,-488.1121,0.122128434,0.11409744,0.08160287,0.049644694,inf,inf,inf,inf,inf,1,1,1,1,3,2,2,1,2,1,1,1,0,2,0,0
1777227356749000,1777227356749000,1777227106893000,47.397742099999995,8.5455942,103.08871,-0.03605507,0.08200073,-0.0019206639,-0.002875626,-488.1121,-0.010220648,-0.009339226,-0.01792107,0.0005304948,-0.0017447465,0.0049493075,-6.0223043e-05,-0.00063179637,0.014964543,0.028629785,-0.0062281,0.0002956056,-0.01757574,-0.0042710165,2.0431577e-05,488.1121,0.010009766,1e-04,-488.1121,0.1198816,0.11277205,0.079955325,0.049198683,inf,inf,inf,inf,inf,1,1,1,1,3,2,2,1,2,1,1,1,0,2,0,0
1777227356757000,1777227356757000,1777227106893000,47.397742099999995,8.5455942,103.088615,-0.036082413,0.08200073,-0.0019206639,-0.002875626,-488.1121,-0.009979132,-0.009297254,-0.017526338,0.0009198651,-0.0017447465,0.0049493075,-6.0223043e-05,0.028580146,-2.5081361e-05,0.041774936,-0.006206878,0.00029570848,-0.017550712,-0.0042710165,2.0475745e-05,488.1121,0.010009766,1e-04,-488.1121,0.12028357,0.11296322,0.080255084,0.04927148,inf,inf,inf,inf,inf,1,1,1,1,3,2,2,1,2,1,1,1,0,2,0,0
1777227356765000,1777227356765000,1777227106893000,47.397742099999995,8.5455942,103.08853,-0.03611153,0.08200073,-0.0019206639,-0.002875626,-488.1121,-0.010255089,-0.009711931,-0.017147148,0.0012894124,-0.0017447465,0.0049493075,-6.0223043e-05,-0.036083356,-0.05697222,0.040077135,-0.006213291,0.0002958115,-0.017553398,-0.0042710165,2.0519956e-05,488.1121,0.010009766,1e-04,-488.1121,0.12068828,0.11321349,0.08055573,0.049354393,inf,inf,inf,inf,inf,1,1,1,1,3,2,2,1,2,1,1,1,0,2,0,0
1777227356773000,1777227356773000,1777227106893000,47.397742099999995,8.5455942,103.08844,-0.036143094,0.08200073,-0.0019206639,-0.002875626,-488.1121,-0.010297876,-0.009629951,-0.016918799,0.0015030778,-0.0017447465,0.0049493075,-6.0223043e-05,-0.006919558,0.0051749153,0.021459999,-0.0062653967,0.0002957782,-0.017601857,-0.0042710165,2.0562102e-05,488.1121,0.010009766,1e-04,-488.1121,0.12109535,0.113464594,0.08085367,0.04943718,inf,inf,inf,inf,inf,1,1,1,1,3,2,2,1,2,1,1,1,0,2,0,0
1777227356781000,1777227356781000,1777227106893000,47.397742099999995,8.5455942,103.08835,-0.03617349,0.08200073,-0.0019206639,-0.002875626,-488.1121,-0.0103849,-0.009458652,-0.017295646,0.0011066733,-0.0017447465,0.0049493075,-6.0223043e-05,-0.012426642,0.016463561,-0.053958498,-0.006302759,0.0002958812,-0.017636452,-0.0042710165,2.060638e-05,488.1121,0.010009766,1e-04,-488.1121,0.121505566,0.11371654,0.08115341,0.049519844,inf,inf,inf,inf,inf,1,1,1,1,3,2,2,1,2,1,1,1,0,2,0,0
1777227356789000,1777227356789000,1777227106893000,47.397742099999995,8.5455942,103.08826,-0.03620414,0.08200073,-0.0019206639,-0.002875626,-488.1121,-0.010581812,-0.009573448,-0.017606968,0.00077106553,-0.0017447465,0.0049493075,-6.0223043e-05,-0.025959894,-0.019256916,-0.045543533,-0.006259068,0.00029517995,-0.017590078,-0.0042710165,2.0639307e-05,488.1121,0.010009766,1e-04,-488.1121,0.12191606,0.11396932,0.08144364,0.04960238,inf,inf,inf,inf,inf,1,1,1,1,3,2,2,1,2,1,1,1,0,2,0,0
1777227356797000,1777227356797000,1777227106893000,47.397742099999995,8.5455942,103.08818,-0.036225557,0.08203125,-0.0019206639,-0.002875626,-488.1121,-0.010732871,-0.00955811,-0.017902039,0.00048356107,-0.0017447465,0.0049493075,-6.0223043e-05,-0.021544443,-0.0040271888,-0.044958662,-0.006279892,0.00029526636,-0.017607654,-0.0042710165,2.0406034e-05,488.1121,0.010009766,1e-04,-488.1121,0.11968432,0.112649046,0.07980779,0.049158257,inf,inf,inf,inf,inf,1,1,1,1,3,2,2,1,2,1,1,1,0,2,0,0
1777227356805000,1777227356805000,1777227106893000,47.397742099999995,8.5455942,103.088104,-0.03624759,0.08203125,-0.0019206639,-0.002875626,-488.1121,-0.011038013,-0.009439532,-0.018146392,0.0002419615,-0.0017447465,0.0049493075,-6.0223043e-05,-0.040746167,0.009026143,-0.03835931,-0.0063346443,0.0002953691,-0.017659323,-0.0042710165,2.0450178e-05,488.1121,0.010009766,1e-04,-488.1121,0.12008495,0.1128982,0.08010717,0.04924135,inf,inf,inf,inf,inf,1,1,1,1,3,2,2,1,2,1,1,1,0,2,0,0
1777227356813000,1777227356813000,1777227106893000,47.397742099999995,8.5455942,103.08803,-0.03626804,0.08203125,-0.0019206639,-0.002875626,-488.1121,-0.011462315,-0.0090582585,-0.018186945,0.00019953313,-0.0017447465,0.0049493075,-6.0223043e-05,-0.055582296,0.042011797,-0.012624542,-0.0064180708,0.0002954719,-0.017739754,-0.0042710165,2.0494359e-05,488.1121,0.010009766,1e-04,-488.1121,0.120488316,0.113089606,0.08040644,0.04931403,inf,inf,inf,inf,inf,1,1,1,1,3,2,2,1,2,1,1,1,0,2,0,0
1777227356821000,1777227356821000,1777227106893000,47.397742099999995,8.5455942,103.087944,-0.03628668,0.08206177,-0.0019206639,-0.002875626,-488.1121,-0.011552374,-0.008744918,-0.018095676,0.00028446916,-0.0017447465,0.0049493075,-6.0223043e-05,-0.013748541,0.033661142,0.004097819,-0.0064704665,0.00029557478,-0.01778929,-0.0042710165,2.053858e-05,488.1121,0.010009766,1e-04,-488.1121,0.12089443,0.1133403,0.08070596,0.04939688,inf,inf,inf,inf,inf,1,1,1,1,3,2,2,1,2,1,1,1,0,2,0,0
1777227356829000,1777227356829000,1777227106893000,47.397742099999995,8.5455942,103.08786,-0.036304235,0.08203125,-0.0019206639,-0.002875626,-488.1121,-0.011794308,-0.00869328,-0.017972484,0.00039700168,-0.0017447465,0.0049493075,-6.0223043e-05,-0.032682747,0.0010848943,0.008325557,-0.0065014283,0.0002956777,-0.017817525,-0.0042710165,2.058284e-05,488.1121,0.010009766,1e-04,-488.1121,0.12130329,0.113591835,0.081005335,0.049479604,inf,inf,inf,inf,inf,1,1,1,1,3,2,2,1,2,1,1,1,0,2,0,0
1777227356837000,1777227356837000,1777227106893000,47.397742099999995,8.5455942,103.087776,-0.036323525,0.08203125,-0.0019206639,-0.002875626,-488.1121,-0.012061576,-0.00883386,-0.01775525,0.0005994163,-0.0017447465,0.0049493075,-6.0223043e-05,-0.035803333,-0.022805488,0.020311678,-0.006503481,0.00029578066,-0.017816989,-0.0042710165,2.0627136e-05,488.1121,0.010009766,1e-04,-488.1121,0.121714905,0.1138442,0.08130616,0.0495622,inf,inf,inf,inf,inf,1,1,1,1,3,2,2,1,2,1,1,1,0,2,0,0
1777227356845000,1777227356845000,1777227106893000,47.397742099999995,8.5455942,103.08769,-0.03634351,0.08203125,-0.0019206639,-0.002875626,-488.1121,-0.012425181,-0.008769732,-0.017716972,0.00061890687,-0.0017447465,0.0049493075,-6.0223043e-05,-0.047803942,0.0029184867,-0.0018342397,-0.006555477,0.00029588366,-0.017866531,-0.0042710165,2.0671469e-05,488.1121,0.010009766,1e-04,-488.1121,0.12212929,0.1140974,0.081606835,0.049644668,inf,inf,inf,inf,inf,1,1,1,1,3,2,2,1,2,1,1,1,0,2,0,0
1777227356853000,1777227356853000,1777227106893000,47.397742099999995,8.5455942,103.08761,-0.036353886,0.08206177,-0.0019206639,-0.002875626,-488.1121,-0.012727628,-0.008854583,-0.01757798,0.00076375133,-0.0017447465,0.0049493075,-6.0223043e-05,-0.040983412,-0.016776374,0.009538139,-0.006656309,0.00029597085,-0.017965043,-0.0042710165,2.0435822e-05,488.1121,0.010009766,1e-04,-488.1121,0.119882345,0.11277202,0.07995879,0.04919866,inf,inf,inf,inf,inf,1,1,1,1,3,2,2,1,2,1,1,1,0,2,0,0
1777227356861000,1777227356861000,1777227106893000,47.397742099999995,8.5455942,103.087524,-0.03636551,0.08206177,-0.0019206639,-0.002875626,-488.1121,-0.012817389,-0.008881872,-0.017623164,0.0007196638,-0.0017447465,0.0049493075,-6.0223043e-05,-0.014480954,-0.0094270455,-0.013234093,-0.0067249984,0.00029526892,-0.018031623,-0.0042710165,2.046883e-05,488.1121,0.010009766,1e-04,-488.1121,0.12028208,0.11296319,0.080248594,0.049271453,inf,inf,inf,inf,inf,1,1,1,1,3,2,2,1,2,1,1,1,0,2,0,0
1777227356869000,1777227356869000,1777227106893000,47.397742099999995,8.5455942,103.08743,-0.03637747,0.08206177,-0.0019206639,-0.002875626,-488.1121,-0.013007623,-0.008634574,-0.017885787,0.00045353902,-0.0017447465,0.0049493075,-6.0223043e-05,-0.026966793,0.025054613,-0.04016887,-0.0067114653,0.00029537172,-0.018016174,-0.0042710165,2.051303e-05,488.1121,0.010009766,1e-04,-488.1121,0.120686755,0.113213465,0.08054766,0.04935437,inf,inf,inf,inf,inf,1,1,1,1,3,2,2,1,2,1,1,1,0,2,0,0
1777227356877000,1777227356877000,1777227106893000,47.397742099999995,8.5455942,103.08735,-0.03638863,0.082092285,-0.0019206639,-0.002875626,-488.1121,-0.013311659,-0.008544911,-0.018073518,0.0002579245,-0.0017447465,0.0049493075,-6.0223043e-05,-0.04112753,0.005504015,-0.030568799,-0.006724419,0.00029547457,-0.018027345,-0.0042710165,2.0557269e-05,488.1121,0.010009766,1e-04,-488.1121,0.121094175,0.113464564,0.080848426,0.049437158,inf,inf,inf,inf,inf,1,1,1,1,3,2,2,1,2,1,1,1,0,2,0,0
1777227356885000,1777227356885000,1777227106893000,47.397742099999995,8.5455942,103.08726,-0.036401115,0.08206177,-0.0019206639,-0.002875626,-488.1121,-0.013245406,-0.008677391,-0.018273002,4.5487075e-05,-0.0017447465,0.0049493075,-6.0223043e-05,0.0052212807,-0.022116963,-0.031806525,-0.0067319293,0.00029557745,-0.018033195,-0.0042710165,2.0601547e-05,488.1121,0.010009766,1e-04,-488.1121,0.12150435,0.11371651,0.08114978,0.049519822,inf,inf,inf,inf,inf,1,1,1,1,3,2,2,1,2,1,1,1,0,2,0,0
1777227356893000,1777227356893000,1777227106893000,47.397742099999995,8.5455942,103.08717,-0.036415733,0.08206177,-0.0019206639,-0.002875626,-488.1121,-0.013006119,-0.008857608,-0.018584592,-0.00028389302,-0.0017447465,0.0049493075,-6.0223043e-05,0.026917752,-0.027937405,-0.04559522,-0.0067361374,0.00029568025,-0.018035866,-0.0042710165,2.0645854e-05,488.1121,0.010009766,1e-04,-488.1121,0.1219173,0.11396929,0.08144953,0.049602356,inf,inf,inf,inf,inf,1,1,1,1,3,2,2,1,2,1,1,1,0,2,0,0
1777227356901000,1777227356901000,1777227106893000,47.397742099999995,8.5455942,103.0871,-0.03642883,0.08206177,-0.0019206639,-0.002875626,-488.1121,-0.012986926,-0.008865237,-0.018671693,-0.00036904163,-0.0017447465,0.0049493075,-6.0223043e-05,-0.0016131579,-0.006973025,-0.018635763,-0.006719975,0.00029576765,-0.018018283,-0.0042710165,2.0412375e-05,488.1121,0.010009766,1e-04,-488.1121,0.119685404,0.112649016,0.07981314,0.049158234,inf,inf,inf,inf,inf,1,1,1,1,3,2,2,1,2,1,1,1,0,2,0,0
1777227356909000,1777227356909000,1777227106893000,47.397742099999995,8.5455942,103.08702,-0.036443576,0.08206177,-0.0019206639,-0.002875626,-488.1121,-0.012569425,-0.0089704,-0.018933527,-0.0006335009,-0.0017447465,0.0049493075,-6.0223043e-05,0.048266254,-0.019008977,-0.040227544,-0.006747323,0.00029587053,-0.018044375,-0.0042710165,2.0456522e-05,488.1121,0.010009766,1e-04,-488.1121,0.12008605,0.11289817,0.08011142,0.049241327,inf,inf,inf,inf,inf,1,1,1,1,3,2,2,1,2,1,1,1,0,2,0,0
1777227356917000,1777227356917000,1777227106893000,47.397742099999995,8.5455942,103.086945,-0.036458455,0.08206177,-0.0019206639,-0.002875626,-488.1121,-0.012366489,-0.00873133,-0.01879969,-0.0005067885,-0.0017447465,0.0049493075,-6.0223043e-05,0.021531152,0.024166493,0.009471084,-0.006715978,0.00029597344,-0.018011883,-0.0042710165,2.0500707e-05,488.1121,0.010009766,1e-04,-488.1121,0.12048944,0.113089584,0.08040981,0.049314007,inf,inf,inf,inf,inf,1,1,1,1,3,2,2,1,2,1,1,1,0,2,0,0
1777227356925000,1777227356925000,1777227106893000,47.397742099999995,8.5455942,103.08687,-0.036468968,0.08206177,-0.0019206639,-0.002875626,-488.1121,-0.012406809,-0.008760342,-0.018404102,-0.00012273231,-0.0017447465,0.0049493075,-6.0223043e-05,-0.008665875,-0.010153783,0.042426396,-0.0066962424,0.00029527195,-0.01799111,-0.0042710165,2.0533696e-05,488.1121,0.010009766,1e-04,-488.1121,0.12089323,0.11334027,0.0806995,0.049396858,inf,inf,inf,inf,inf,1,1,1,1,3,2,2,1,2,1,1,1,0,2,0,0
1777227356933000,1777227356933000,1777227106893000,47.397742099999995,8.5455942,103.0868,-0.036480412,0.08206177,-0.0019206639,-0.002875626,-488.1121,-0.011899486,-0.008667845,-0.018288638,-2.3020315e-05,-0.0017447465,0.0049493075,-6.0223043e-05,0.05987358,0.0051945713,0.0076396386,-0.0066294717,0.00029537478,-0.017916063,-0.0042710165,2.0577954e-05,488.1121,0.010009766,1e-04,-488.1121,0.12130206,0.113591805,0.08100038,0.04947958,inf,inf,inf,inf,inf,1,1,1,1,3,2,2,1,2,1,1,1,0,2,0,0
1777227356941000,1777227356941000,1777227106893000,47.397742099999995,8.5455942,103.08673,-0.036491282,0.08203125,-0.0019206639,-0.002875626,-488.1121,-0.011873187,-0.008403543,-0.01795902,0.00028688187,-0.0017447465,0.0049493075,-6.0223043e-05,-0.00017099318,0.026833516,0.034631692,-0.0065690116,0.00029547757,-0.01784741,-0.0042710165,2.0622247e-05,488.1121,0.010009766,1e-04,-488.1121,0.12171365,0.11384418,0.081301324,0.04956218,inf,inf,inf,inf,inf,1,1,1,1,3,2,2,1,2,1,1,1,0,2,0,0
1777227356949000,1777227356949000,1777227106893000,47.397742099999995,8.5455942,103.08666,-0.03650029,0.08203125,-0.0019206639,-0.002875626,-488.1121,-0.011806276,-0.007983827,-0.01774613,0.00047632144,-0.0017447465,0.0049493075,-6.0223043e-05,0.004981932,0.04641849,0.020256264,-0.006601157,0.00029558042,-0.017871443,-0.0042710165,2.0666575e-05,488.1121,0.010009766,1e-04,-488.1121,0.12212801,0.11409738,0.081602566,0.049644645,inf,inf,inf,inf,inf,1,1,1,1,3,2,2,1,2,1,1,1,0,2,0,0
1777227356957000,1777227356957000,1777227106893000,47.397742099999995,8.5455942,103.0866,-0.03651122,0.08203125,-0.0019206639,-0.002875626,-488.1121,-0.011676996,-0.007766258,-0.017348059,0.0008679013,-0.0017447465,0.0049493075,-6.0223043e-05,0.01165978,0.020911975,0.04239799,-0.00664065,0.00029566762,-0.017902918,-0.0042710165,2.043104e-05,488.1121,0.010009766,1e-04,-488.1121,0.1198812,0.11277199,0.07995559,0.049198635,inf,inf,inf,inf,inf,1,1,1,1,3,2,2,1,2,1,1,1,0,2,0,0
1777227356965000,1777227356965000,1777227106893000,47.397742099999995,8.5455942,103.08654,-0.036522314,0.08203125,-0.0019206639,-0.002875626,-488.1121,-0.01154031,-0.0078060166,-0.017162468,0.0010419111,-0.0017447465,0.0049493075,-6.0223043e-05,0.012688869,-0.011093413,0.016068107,-0.0066459402,0.0002957706,-0.017900303,-0.0042710165,2.0475212e-05,488.1121,0.010009766,1e-04,-488.1121,0.120283164,0.11296316,0.080254845,0.049271427,inf,inf,inf,inf,inf,1,1,1,1,3,2,2,1,2,1,1,1,0,2,0,0
1777227356973000,1777227356973000,1777227106893000,47.397742099999995,8.5455942,103.08648,-0.03653365,0.08203125,-0.0019206639,-0.002875626,-488.1121,-0.0115591455,-0.0077333977,-0.016897175,0.0012907126,-0.0017447465,0.0049493075,-6.0223043e-05,-0.006719823,0.00306685,0.02626283,-0.006646878,0.00029573755,-0.017893426,-0.0042710165,2.0517336e-05,488.1121,0.010009766,1e-04,-488.1121,0.12068749,0.11321343,0.08055247,0.04935434,inf,inf,inf,inf,inf,1,1,1,1,3,2,2,1,2,1,1,1,0,2,0,0
1777227356981000,1777227356981000,1777227106893000,47.397742099999995,8.5455942,103.08642,-0.036546566,0.08203125,-0.0019206639,-0.002875626,-488.1121,-0.011307375,-0.007964887,-0.016796784,0.0013698664,-0.0017447465,0.0049493075,-6.0223043e-05,0.027205411,-0.034793343,0.0058757137,-0.0066219317,0.00029584047,-0.017860983,-0.0042710165,2.0561572e-05,488.1121,0.010009766,1e-04,-488.1121,0.121094935,0.113464534,0.08085191,0.049437128,inf,inf,inf,inf,inf,1,1,1,1,3,2,2,1,2,1,1,1,0,2,0,0
1777227356989000,1777227356989000,1777227106893000,47.397742099999995,8.5455942,103.086365,-0.036561143,0.08203125,-0.0019206639,-0.002875626,-488.1121,-0.011311587,-0.007986008,-0.016721785,0.0014190213,-0.0017447465,0.0049493075,-6.0223043e-05,-0.0046936474,-0.008349009,0.0029206274,-0.0066725453,0.00029594344,-0.017904177,-0.0042710165,2.0605847e-05,488.1121,0.010009766,1e-04,-488.1121,0.121505134,0.113716476,0.08115137,0.049519792,inf,inf,inf,inf,inf,1,1,1,1,3,2,2,1,2,1,1,1,0,2,0,0
1777227356997000,1777227356997000,1777227106893000,47.397742099999995,8.5455942,103.0863,-0.036576066,0.08200073,-0.0019206639,-0.002875626,-488.1121,-0.011545101,-0.007803596,-0.016739242,0.0013712614,-0.0017447465,0.0049493075,-6.0223043e-05,-0.033253193,0.01728007,-0.008423812,-0.006701766,0.00029524264,-0.01792606,-0.0042710165,2.0638792e-05,488.1121,0.010009766,1e-04,-488.1121,0.12191562,0.11396925,0.08144184,0.049602326,inf,inf,inf,inf,inf,1,1,1,1,3,2,2,1,2,1,1,1,0,2,0,0
1777227357005000,1777227357005000,1777227106893000,47.397742099999995,8.5455942,103.08625,-0.03659454,0.08200073,-0.0019206639,-0.002875626,-488.1121,-0.01121077,-0.007810291,-0.016794313,0.001296978,-0.0017447465,0.0049493075,-6.0223043e-05,0.036416404,-0.006555717,-0.013888347,-0.0067806733,0.00029532996,-0.017998021,-0.0042710165,2.0405529e-05,488.1121,0.010009766,1e-04,-488.1121,0.119683936,0.11264899,0.07980612,0.049158208,inf,inf,inf,inf,inf,1,1,1,1,3,2,2,1,2,1,1,1,0,2,0,0
1777227357013000,1777227357013000,1777227106893000,47.397742099999995,8.5455942,103.086205,-0.03661433,0.08200073,-0.0019206639,-0.002875626,-488.1121,-0.011171545,-0.007923722,-0.017004045,0.001064271,-0.0017447465,0.0049493075,-6.0223043e-05,-0.0003448026,-0.019752072,-0.032992564,-0.0067508174,0.00029543272,-0.01796131,-0.0042710165,2.0449672e-05,488.1121,0.010009766,1e-04,-488.1121,0.12008455,0.11289814,0.080105335,0.0492413,inf,inf,inf,inf,inf,1,1,1,1,3,2,2,1,2,1,1,1,0,2,0,0
1777227357021000,1777227357021000,1777227106893000,47.397742099999995,8.5455942,103.08616,-0.0366344,0.08200073,-0.0019206639,-0.002875626,-488.1121,-0.010898718,-0.0077765817,-0.017038275,0.0010054922,-0.0017447465,0.0049493075,-6.0223043e-05,0.028979445,0.012963502,-0.010890885,-0.006744325,0.00029553546,-0.01794803,-0.0042710165,2.049385e-05,488.1121,0.010009766,1e-04,-488.1121,0.1204879,0.11308955,0.080405354,0.04931398,inf,inf,inf,inf,inf,1,1,1,1,3,2,2,1,2,1,1,1,0,2,0,0
1777227357029000,1777227357029000,1777227106893000,47.397742099999995,8.5455942,103.08611,-0.036654096,0.081970215,-0.0019206639,-0.002875626,-488.1121,-0.011173205,-0.007657687,-0.017126273,0.0008885258,-0.0017447465,0.0049493075,-6.0223043e-05,-0.03930974,0.0095754145,-0.017394776,-0.006799549,0.00029563825,-0.017996524,-0.0042710165,2.0538064e-05,488.1121,0.010009766,1e-04,-488.1121,0.120894,0.11334024,0.08070542,0.04939683,inf,inf,inf,inf,inf,1,1,1,1,3,2,2,1,2,1,1,1,0,2,0,0
1777227357037000,1777227357037000,1777227106893000,47.397742099999995,8.5455942,103.08606,-0.036672648,0.081970215,-0.0019206639,-0.002875626,-488.1121,-0.011325882,-0.007378905,-0.017048532,0.00093310396,-0.0017447465,0.0049493075,-6.0223043e-05,-0.023963442,0.0296959,0.0035334376,-0.0068334127,0.00029574108,-0.018023714,-0.0042710165,2.0582316e-05,488.1121,0.010009766,1e-04,-488.1121,0.12130286,0.113591775,0.08100593,0.049479555,inf,inf,inf,inf,inf,1,1,1,1,3,2,2,1,2,1,1,1,0,2,0,0
1777227357045000,1777227357045000,1777227106893000,47.397742099999995,8.5455942,103.08601,-0.036690578,0.0819397,-0.0019206639,-0.002875626,-488.1121,-0.011448542,-0.007415924,-0.016929295,0.001015215,-0.0017447465,0.0049493075,-6.0223043e-05,-0.020099567,-0.009652017,0.008924863,-0.0068427445,0.00029584393,-0.018026426,-0.0042710165,2.0626609e-05,488.1121,0.010009766,1e-04,-488.1121,0.12171447,0.11384414,0.08130709,0.049562152,inf,inf,inf,inf,inf,1,1,1,1,3,2,2,1,2,1,1,1,0,2,0,0
1777227357053000,1777227357053000,1777227106893000,47.397742099999995,8.5455942,103.08596,-0.03670874,0.08190918,-0.0019206639,-0.002875626,-488.1121,-0.011519949,-0.007250856,-0.016754294,0.0011493416,-0.0017447465,0.0049493075,-6.0223043e-05,-0.013579246,0.01573639,0.016094184,-0.006894633,0.00029594684,-0.018071748,-0.0042710165,2.0670934e-05,488.1121,0.010009766,1e-04,-488.1121,0.12212885,0.11409734,0.08160789,0.049644623,inf,inf,inf,inf,inf,1,1,1,1,3,2,2,1,2,1,1,1,0,2,0,0
1777227357061000,1777227357061000,1777227106893000,47.397742099999995,8.5455942,103.08592,-0.036728945,0.08190918,-0.0019206639,-0.002875626,-488.1121,-0.01136064,-0.006943714,-0.016479269,0.0014044277,-0.0017447465,0.0049493075,-6.0223043e-05,0.013365171,0.03326067,0.027433502,-0.0069379304,0.00029523086,-0.018108524,-0.0042710165,2.0424135e-05,488.1121,0.010009766,1e-04,-488.1121,0.119879715,0.11277196,0.07995172,0.049198616,inf,inf,inf,inf,inf,1,1,1,1,3,2,2,1,2,1,1,1,0,2,0,0
1777227357069000,1777227357069000,1777227106893000,47.397742099999995,8.5455942,103.085884,-0.03674673,0.08190918,-0.0019206639,-0.002875626,-488.1121,-0.011593476,-0.006636513,-0.016741572,0.0011188753,-0.0017447465,0.0049493075,-6.0223043e-05,-0.035497278,0.033402327,-0.0395528,-0.0070028557,0.0002953336,-0.018167682,-0.0042710165,2.0468296e-05,488.1121,0.010009766,1e-04,-488.1121,0.12028165,0.11296313,0.08025072,0.049271412,inf,inf,inf,inf,inf,1,1,1,1,3,2,2,1,2,1,1,1,0,2,0,0
1777227357077000,1777227357077000,1777227106893000,47.397742099999995,8.5455942,103.08584,-0.036763795,0.08187866,-0.0019206639,-0.002875626,-488.1121,-0.011815062,-0.00663054,-0.017144425,0.0006885165,-0.0017447465,0.0049493075,-6.0223043e-05,-0.033939403,-0.004122746,-0.05690008,-0.007037914,0.00029543636,-0.018197013,-0.0042710165,2.0512496e-05,488.1121,0.010009766,1e-04,-488.1121,0.12068633,0.1132134,0.08054921,0.04935433,inf,inf,inf,inf,inf,1,1,1,1,3,2,2,1,2,1,1,1,0,2,0,0
1777227357085000,1777227357085000,1777227106893000,47.397742099999995,8.5455942,103.08579,-0.036782067,0.08187866,-0.0019206639,-0.002875626,-488.1121,-0.011821649,-0.006903218,-0.017180426,0.0006208548,-0.0017447465,0.0049493075,-6.0223043e-05,-0.0069181216,-0.03882702,-0.010828952,-0.0070303422,0.0002955391,-0.018183753,-0.0042710165,2.0556728e-05,488.1121,0.010009766,1e-04,-488.1121,0.12109375,0.113464504,0.08084892,0.049437117,inf,inf,inf,inf,inf,1,1,1,1,3,2,2,1,2,1,1,1,0,2,0,0
1777227357093000,1777227357093000,1777227106893000,47.397742099999995,8.5455942,103.08575,-0.036803186,0.081848145,-0.0019206639,-0.002875626,-488.1121,-0.011818246,-0.007061316,-0.017639516,0.00012605934,-0.0017447465,0.0049493075,-6.0223043e-05,-0.005528356,-0.02438247,-0.06350642,-0.00711841,0.0002956419,-0.018266361,-0.0042710165,2.0600997e-05,488.1121,0.010009766,1e-04,-488.1121,0.12150393,0.113716446,0.08114816,0.049519777,inf,inf,inf,inf,inf,1,1,1,1,3,2,2,1,2,1,1,1,0,2,0,0
1777227357101000,1777227357101000,1777227106893000,47.397742099999995,8.5455942,103.0857,-0.036824565,0.08181763,-0.0019206639,-0.002875626,-488.1121,-0.011779146,-0.0070017236,-0.017688528,3.7388294e-05,-0.0017447465,0.0049493075,-6.0223043e-05,-0.000934026,0.0029458466,-0.012044328,-0.007204099,0.0002957447,-0.018346816,-0.0042710165,2.0645304e-05,488.1121,0.010009766,1e-04,-488.1121,0.12191686,0.11396922,0.081448,0.04960231,inf,inf,inf,inf,inf,1,1,1,1,3,2,2,1,2,1,1,1,0,2,0,0
1777227357109000,1777227357109000,1777227106893000,47.397742099999995,8.5455942,103.08566,-0.036856823,0.08181763,-0.0019206639,-0.002875626,-488.1121,-0.0113142645,-0.0069612456,-0.01779555,-8.572714e-05,-0.0017447465,0.0049493075,-6.0223043e-05,0.051766686,0.0007519234,-0.020480247,-0.0072949016,0.00029583217,-0.01843261,-0.0042710165,2.0411853e-05,488.1121,0.010009766,1e-04,-488.1121,0.11968502,0.11264896,0.07981147,0.049158193,inf,inf,inf,inf,inf,1,1,1,1,3,2,2,1,2,1,1,1,0,2,0,0
1777227357117000,1777227357117000,1777227106893000,47.397742099999995,8.5455942,103.08562,-0.036890235,0.08178711,-0.0019206639,-0.002875626,-488.1121,-0.01108596,-0.007306127,-0.01766459,2.5284127e-05,-0.0017447465,0.0049493075,-6.0223043e-05,0.02234564,-0.047307726,0.009498092,-0.0073226257,0.00029593508,-0.018455539,-0.0042710165,2.0456002e-05,488.1121,0.010009766,1e-04,-488.1121,0.120085664,0.11289811,0.08011022,0.049241286,inf,inf,inf,inf,inf,1,1,1,1,3,2,2,1,2,1,1,1,0,2,0,0
1777227357125000,1777227357125000,1777227106893000,47.397742099999995,8.5455942,103.08557,-0.036926545,0.08178711,-0.0019206639,-0.002875626,-488.1121,-0.0110132815,-0.0076349056,-0.017406221,0.00025895098,-0.0017447465,0.0049493075,-6.0223043e-05,0.0030424302,-0.04518982,0.025677959,-0.007298996,0.00029603802,-0.018427337,-0.0042710165,2.0500189e-05,488.1121,0.010009766,1e-04,-488.1121,0.12048904,0.11308952,0.08040898,0.049313966,inf,inf,inf,inf,inf,1,1,1,1,3,2,2,1,2,1,1,1,0,2,0,0
1777227357133000,1777227357133000,1777227106893000,47.397742099999995,8.5455942,103.08553,-0.036965776,0.08175659,-0.0019206639,-0.002875626,-488.1121,-0.010876769,-0.007978939,-0.017384257,0.00025259383,-0.0017447465,0.0049493075,-6.0223043e-05,0.011153756,-0.04702466,-0.0036559065,-0.0072751488,0.00029533688,-0.018399134,-0.0042710165,2.0533189e-05,488.1121,0.010009766,1e-04,-488.1121,0.12089283,0.113340214,0.08069911,0.049396817,inf,inf,inf,inf,inf,1,1,1,1,3,2,2,1,2,1,1,1,0,2,0,0
1777227357141000,1777227357141000,1777227106893000,47.397742099999995,8.5455942,103.08549,-0.037005473,0.081726074,-0.0019206639,-0.002875626,-488.1121,-0.0117512625,-0.007778142,-0.017578756,2.6278838e-05,-0.0017447465,0.0049493075,-6.0223043e-05,-0.1150847,0.021174928,-0.03050314,-0.007290722,0.00029543962,-0.018410336,-0.0042710165,2.0577441e-05,488.1121,0.010009766,1e-04,-488.1121,0.12130165,0.113591745,0.08099883,0.04947954,inf,inf,inf,inf,inf,1,1,1,1,3,2,2,1,2,1,1,1,0,2,0,0
1777227357149000,1777227357149000,1777227106893000,47.397742099999995,8.5455942,103.08544,-0.037044764,0.08169556,-0.0019206639,-0.002875626,-488.1121,-0.011862965,-0.007849912,-0.017718004,-0.00014814344,-0.0017447465,0.0049493075,-6.0223043e-05,-0.019598573,-0.012801468,-0.023392027,-0.00734447,0.00029554238,-0.01845992,-0.0042710165,2.062173e-05,488.1121,0.010009766,1e-04,-488.1121,0.121713236,0.11384411,0.08129898,0.049562138,inf,inf,inf,inf,inf,1,1,1,1,3,2,2,1,2,1,1,1,0,2,0,0
1777227357157000,1777227357157000,1777227106893000,47.397742099999995,8.5455942,103.08539,-0.037083287,0.08166504,-0.0019206639,-0.002875626,-488.1121,-0.0116227735,-0.0075018,-0.017356457,0.00017501612,-0.0017447465,0.0049493075,-6.0223043e-05,0.024518102,0.0397783,0.03940565,-0.007422504,0.00029564518,-0.018533994,-0.0042710165,2.0666055e-05,488.1121,0.010009766,1e-04,-488.1121,0.12212758,0.11409731,0.08159975,0.049644608,inf,inf,inf,inf,inf,1,1,1,1,3,2,2,1,2,1,1,1,0,2,0,0
1777227357165000,1777227357165000,1777227106893000,47.397742099999995,8.5455942,103.085335,-0.037136007,0.08166504,-0.0019206639,-0.002875626,-488.1121,-0.011730655,-0.0072847023,-0.016667323,0.00085617905,-0.0017447465,0.0049493075,-6.0223043e-05,-0.019482039,0.023840226,0.07895007,-0.0074641197,0.00029573234,-0.018571842,-0.0042710165,2.043058e-05,488.1121,0.010009766,1e-04,-488.1121,0.11988083,0.11277193,0.079952955,0.0491986,inf,inf,inf,inf,inf,1,1,1,1,3,2,2,1,2,1,1,1,0,2,0,0
1777227357173000,1777227357173000,1777227106893000,47.397742099999995,8.5455942,103.08529,-0.037187845,0.08166504,-0.0019206639,-0.002875626,-488.1121,-0.011467887,-0.007243184,-0.01653566,0.0009757302,-0.0017447465,0.0049493075,-6.0223043e-05,0.026917743,0.0020762181,0.0094855195,-0.007471498,0.0002956994,-0.01857562,-0.0042710165,2.0472671e-05,488.1121,0.010009766,1e-04,-488.1121,0.12028241,0.1129631,0.080250755,0.049271397,inf,inf,inf,inf,inf,1,1,1,1,3,2,2,1,2,1,1,1,0,2,0,0
1777227357181000,1777227357181000,1777227106893000,47.397742099999995,8.5455942,103.085236,-0.037238605,0.08166504,-0.0019206639,-0.002875626,-488.1121,-0.011279868,-0.0070385966,-0.016166367,0.0013289336,-0.0017447465,0.0049493075,-6.0223043e-05,0.01771984,0.02254347,0.03941636,-0.007421724,0.0002958022,-0.018522935,-0.0042710165,2.0516865e-05,488.1121,0.010009766,1e-04,-488.1121,0.1206871,0.11321337,0.08055042,0.049354315,inf,inf,inf,inf,inf,1,1,1,1,3,2,2,1,2,1,1,1,0,2,0,0
1777227357189000,1777227357189000,1777227106893000,47.397742099999995,8.5455942,103.08519,-0.037287723,0.08166504,-0.0019206639,-0.002875626,-488.1121,-0.011305809,-0.0069688656,-0.015889589,0.0015858,-0.0017447465,0.0049493075,-6.0223043e-05,-0.008882117,0.00576819,0.028072389,-0.007442059,0.00029590508,-0.018540548,-0.0042710165,2.05611e-05,488.1121,0.010009766,1e-04,-488.1121,0.12109453,0.113464475,0.08084997,0.049437102,inf,inf,inf,inf,inf,1,1,1,1,3,2,2,1,2,1,1,1,0,2,0,0
1777227357197000,1777227357197000,1777227106893000,47.397742099999995,8.5455942,103.085144,-0.037332937,0.08166504,-0.0019206639,-0.002875626,-488.1121,-0.0113455765,-0.006728143,-0.015691184,0.001760597,-0.0017447465,0.0049493075,-6.0223043e-05,-0.010760657,0.0266649,0.018490477,-0.0074121174,0.00029520533,-0.018508071,-0.0042710165,2.0594085e-05,488.1121,0.010009766,1e-04,-488.1121,0.1215023,0.11371641,0.08114013,0.049519762,inf,inf,inf,inf,inf,1,1,1,1,3,2,2,1,2,1,1,1,0,2,0,0
1777227357205000,1777227357205000,1777227106893000,47.397742099999995,8.5455942,103.08509,-0.037377544,0.08166504,-0.0019206639,-0.002875626,-488.1121,-0.011244053,-0.006878307,-0.015709925,0.0017146568,-0.0017447465,0.0049493075,-6.0223043e-05,0.007035679,-0.022109404,-0.008445232,-0.0074499967,0.000295308,-0.018539561,-0.0042710165,2.0638385e-05,488.1121,0.010009766,1e-04,-488.1121,0.12191519,0.11396919,0.081439935,0.0496023,inf,inf,inf,inf,inf,1,1,1,1,3,2,2,1,2,1,1,1,0,2,0,0
1777227357213000,1777227357213000,1777227106893000,47.397742099999995,8.5455942,103.08505,-0.037439413,0.08169556,-0.0019206639,-0.002875626,-488.1121,-0.011092804,-0.0068696286,-0.015394296,0.0020250094,-0.0017447465,0.0049493075,-6.0223043e-05,0.012191712,-0.0017558103,0.03224611,-0.0074408334,0.0002953949,-0.018524189,-0.0042710165,2.0405165e-05,488.1121,0.010009766,1e-04,-488.1121,0.11968356,0.11264892,0.07980412,0.04915818,inf,inf,inf,inf,inf,1,1,1,1,3,2,2,1,2,1,1,1,0,2,0,0
1777227357221000,1777227357221000,1777227106893000,47.397742099999995,8.5455942,103.085014,-0.03750059,0.08169556,-0.0019206639,-0.002875626,-488.1121,-0.011003021,-0.0069312677,-0.01572688,0.0016828191,-0.0017447465,0.0049493075,-6.0223043e-05,0.0046698665,-0.010474515,-0.048546582,-0.007456009,0.00029549756,-0.018533312,-0.0042710165,2.0449303e-05,488.1121,0.010009766,1e-04,-488.1121,0.12008417,0.112898074,0.080103815,0.049241267,inf,inf,inf,inf,inf,1,1,1,1,3,2,2,1,2,1,1,1,0,2,0,0
1777227357229000,1777227357229000,1777227106893000,47.397742099999995,8.5455942,103.084984,-0.03756129,0.08169556,-0.0019206639,-0.002875626,-488.1121,-0.01068351,-0.006809628,-0.015731296,0.001663723,-0.0017447465,0.0049493075,-6.0223043e-05,0.033543147,0.012508332,-0.0072806138,-0.0074401326,0.0002956004,-0.01851154,-0.0042710165,2.0493488e-05,488.1121,0.010009766,1e-04,-488.1121,0.12048751,0.11308948,0.080404155,0.049313948,inf,inf,inf,inf,inf,1,1,1,1,3,2,2,1,2,1,1,1,0,2,0,0
1777227357237000,1777227357237000,1777227106893000,47.397742099999995,8.5455942,103.084946,-0.03762056,0.08169556,-0.0019206639,-0.002875626,-488.1121,-0.010661169,-0.0067715063,-0.016005328,0.0013711818,-0.0017447465,0.0049493075,-6.0223043e-05,-0.0034537155,0.0021380605,-0.04076259,-0.0074059623,0.00029570318,-0.018471638,-0.0042710165,2.0537704e-05,488.1121,0.010009766,1e-04,-488.1121,0.120893605,0.11334018,0.08070391,0.049396798,inf,inf,inf,inf,inf,1,1,1,1,3,2,2,1,2,1,1,1,0,2,0,0
1777227357245000,1777227357245000,1777227106893000,47.397742099999995,8.5455942,103.08491,-0.037679106,0.08169556,-0.0019206639,-0.002875626,-488.1121,-0.010922608,-0.006747424,-0.015902542,0.0014518423,-0.0017447465,0.0049493075,-6.0223043e-05,-0.038779795,0.00044573913,0.006553251,-0.007368431,0.00029580604,-0.018428534,-0.0042710165,2.0581958e-05,488.1121,0.010009766,1e-04,-488.1121,0.12130245,0.11359171,0.081005044,0.04947952,inf,inf,inf,inf,inf,1,1,1,1,3,2,2,1,2,1,1,1,0,2,0,0
1777227357253000,1777227357253000,1777227106893000,47.397742099999995,8.5455942,103.08487,-0.03773656,0.08169556,-0.0019206639,-0.002875626,-488.1121,-0.010786558,-0.006640454,-0.01587842,0.0014494539,-0.0017447465,0.0049493075,-6.0223043e-05,0.0110541945,0.010873211,-0.003072433,-0.0073478124,0.00029590898,-0.018402498,-0.0042710165,2.0626256e-05,488.1121,0.010009766,1e-04,-488.1121,0.121714056,0.113844074,0.08130542,0.04956212,inf,inf,inf,inf,inf,1,1,1,1,3,2,2,1,2,1,1,1,0,2,0,0
1777227357261000,1777227357261000,1777227106893000,47.397742099999995,8.5455942,103.08483,-0.037792515,0.08166504,-0.0019206639,-0.002875626,-488.1121,-0.010607461,-0.006454086,-0.015717119,0.001580053,-0.0017447465,0.0049493075,-6.0223043e-05,0.016576642,0.020862784,0.014276243,-0.0074048056,0.00029601183,-0.018454222,-0.0042710165,2.067058e-05,488.1121,0.010009766,1e-04,-488.1121,0.122128434,0.11409728,0.08160642,0.04964459,inf,inf,inf,inf,inf,1,1,1,1,3,2,2,1,2,1,1,1,0,2,0,0
1777227357269000,1777227357269000,1777227106893000,47.397742099999995,8.5455942,103.08479,-0.03784835,0.08169556,-0.0019206639,-0.002875626,-488.1121,-0.0105462335,-0.0063937516,-0.0157615,0.0015283884,-0.0017447465,0.0049493075,-6.0223043e-05,0.0013357525,0.004783307,-0.012637581,-0.0073871017,0.00029529576,-0.018431392,-0.0042710165,2.0423862e-05,488.1121,0.010009766,1e-04,-488.1121,0.11987935,0.1127719,0.07994929,0.049198583,inf,inf,inf,inf,inf,1,1,1,1,3,2,2,1,2,1,1,1,0,2,0,0
1777227357277000,1777227357277000,1777227106893000,47.397742099999995,8.5455942,103.084755,-0.037903327,0.08169556,-0.0019206639,-0.002875626,-488.1121,-0.010682238,-0.006322853,-0.015730666,0.0015489548,-0.0017447465,0.0049493075,-6.0223043e-05,-0.023163147,0.0061777486,-0.0030356457,-0.0074038696,0.0002953984,-0.01844373,-0.0042710165,2.0468016e-05,488.1121,0.010009766,1e-04,-488.1121,0.12028128,0.11296307,0.08024788,0.04927138,inf,inf,inf,inf,inf,1,1,1,1,3,2,2,1,2,1,1,1,0,2,0,0
1777227357285000,1777227357285000,1777227106893000,47.397742099999995,8.5455942,103.08471,-0.037956957,0.08169556,-0.0019206639,-0.002875626,-488.1121,-0.010960698,-0.006166898,-0.015567438,0.0016980098,-0.0017447465,0.0049493075,-6.0223043e-05,-0.040818427,0.016880572,0.013737938,-0.007404511,0.00029550114,-0.018440073,-0.0042710165,2.0512212e-05,488.1121,0.010009766,1e-04,-488.1121,0.12068594,0.11321334,0.08054738,0.049354296,inf,inf,inf,inf,inf,1,1,1,1,3,2,2,1,2,1,1,1,0,2,0,0
1777227357293000,1777227357293000,1777227106893000,47.397742099999995,8.5455942,103.08467,-0.038009383,0.08169556,-0.0019206639,-0.002875626,-488.1121,-0.010993729,-0.00619115,-0.015391743,0.0018558013,-0.0017447465,0.0049493075,-6.0223043e-05,-0.009989315,-0.0055747465,0.015514436,-0.0074039777,0.000295604,-0.018435366,-0.0042710165,2.0556454e-05,488.1121,0.010009766,1e-04,-488.1121,0.121093355,0.113464445,0.08084731,0.049437083,inf,inf,inf,inf,inf,1,1,1,1,3,2,2,1,2,1,1,1,0,2,0,0
1777227357301000,1777227357301000,1777227106893000,47.397742099999995,8.5455942,103.084625,-0.03806227,0.08169556,-0.0019206639,-0.002875626,-488.1121,-0.011190287,-0.0063941,-0.015409076,0.0018170234,-0.0017447465,0.0049493075,-6.0223043e-05,-0.03029164,-0.027842073,-0.008402391,-0.0073851887,0.00029570676,-0.018412529,-0.0042710165,2.0600717e-05,488.1121,0.010009766,1e-04,-488.1121,0.121503524,0.11371638,0.081147686,0.049519744,inf,inf,inf,inf,inf,1,1,1,1,3,2,2,1,2,1,1,1,0,2,0,0
1777227357309000,1777227357309000,1777227106893000,47.397742099999995,8.5455942,103.08458,-0.038115356,0.08169556,-0.0019206639,-0.002875626,-488.1121,-0.0112834005,-0.006287912,-0.015389945,0.0018112783,-0.0017447465,0.0049493075,-6.0223043e-05,-0.017222935,0.0108674355,-0.0036391427,-0.00736839,0.00029580962,-0.018391803,-0.0042710165,2.0645026e-05,488.1121,0.010009766,1e-04,-488.1121,0.12191645,0.113969155,0.081447184,0.04960228,inf,inf,inf,inf,inf,1,1,1,1,3,2,2,1,2,1,1,1,0,2,0,0
1777227357317000,1777227357317000,1777227106893000,47.397742099999995,8.5455942,103.08454,-0.038169157,0.08169556,-0.0019206639,-0.002875626,-488.1121,-0.011249562,-0.0064801527,-0.015205858,0.0019844887,-0.0017447465,0.0049493075,-6.0223043e-05,-0.0025120291,-0.026853196,0.016112344,-0.0073301904,0.00029589699,-0.018349793,-0.0042710165,2.04116e-05,488.1121,0.010009766,1e-04,-488.1121,0.11968466,0.11264889,0.07980988,0.04915816,inf,inf,inf,inf,inf,1,1,1,1,3,2,2,1,2,1,1,1,0,2,0,0
1777227357325000,1777227357325000,1777227106893000,47.397742099999995,8.5455942,103.0845,-0.038223203,0.081726074,-0.0019206639,-0.002875626,-488.1121,-0.011494622,-0.00643853,-0.014817451,0.0023579544,-0.0017447465,0.0049493075,-6.0223043e-05,-0.037211534,0.0024458666,0.041876916,-0.0073472355,0.0002959999,-0.018363163,-0.0042710165,2.045575e-05,488.1121,0.010009766,1e-04,-488.1121,0.1200853,0.112898044,0.080108814,0.049241252,inf,inf,inf,inf,inf,1,1,1,1,3,2,2,1,2,1,1,1,0,2,0,0
1777227357333000,1777227357333000,1777227106893000,47.397742099999995,8.5455942,103.084465,-0.03827615,0.081726074,-0.0019206639,-0.002875626,-488.1121,-0.011427255,-0.006290121,-0.014966976,0.0021915154,-0.0017447465,0.0049493075,-6.0223043e-05,0.0018793688,0.015917975,-0.025203915,-0.007339626,0.00029529975,-0.018351985,-0.0042710165,2.0488782e-05,488.1121,0.010009766,1e-04,-488.1121,0.12048638,0.11308945,0.080398045,0.049313933,inf,inf,inf,inf,inf,1,1,1,1,3,2,2,1,2,1,1,1,0,2,0,0
1777227357341000,1777227357341000,1777227106893000,47.397742099999995,8.5455942,103.08443,-0.03832887,0.081726074,-0.0019206639,-0.002875626,-488.1121,-0.011022284,-0.0064700246,-0.015099221,0.0020383846,-0.0017447465,0.0049493075,-6.0223043e-05,0.044238586,-0.02504874,-0.02283044,-0.007301704,0.00029540245,-0.018311013,-0.0042710165,2.0532996e-05,488.1121,0.010009766,1e-04,-488.1121,0.12089245,0.11334015,0.08069695,0.049396783,inf,inf,inf,inf,inf,1,1,1,1,3,2,2,1,2,1,1,1,0,2,0,0
1777227357349000,1777227357349000,1777227106893000,47.397742099999995,8.5455942,103.08439,-0.038382523,0.081726074,-0.0019206639,-0.002875626,-488.1121,-0.01050112,-0.006646479,-0.01520923,0.0019036132,-0.0017447465,0.0049493075,-6.0223043e-05,0.058922827,-0.02454996,-0.019843688,-0.007319073,0.00029550513,-0.018325413,-0.0042710165,2.0577245e-05,488.1121,0.010009766,1e-04,-488.1121,0.121301256,0.11359168,0.08099632,0.049479503,inf,inf,inf,inf,inf,1,1,1,1,3,2,2,1,2,1,1,1,0,2,0,0
1777227357357000,1777227357357000,1777227106893000,47.397742099999995,8.5455942,103.08436,-0.038437035,0.081726074,-0.0019206639,-0.002875626,-488.1121,-0.010651995,-0.006820599,-0.015459236,0.0016250986,-0.0017447465,0.0049493075,-6.0223043e-05,-0.024930859,-0.024190934,-0.037142072,-0.007307601,0.00029560798,-0.01831105,-0.0042710165,2.062154e-05,488.1121,0.010009766,1e-04,-488.1121,0.121712826,0.11384405,0.08129659,0.0495621,inf,inf,inf,inf,inf,1,1,1,1,3,2,2,1,2,1,1,1,0,2,0,0
1777227357365000,1777227357365000,1777227106893000,47.397742099999995,8.5455942,103.08432,-0.038495358,0.08169556,-0.0019206639,-0.002875626,-488.1121,-0.010829012,-0.007623934,-0.015705759,0.001346435,-0.0017447465,0.0049493075,-6.0223043e-05,-0.028053742,-0.102777846,-0.0365111,-0.007327935,0.00029571075,-0.01832867,-0.0042710165,2.0665862e-05,488.1121,0.010009766,1e-04,-488.1121,0.12212716,0.11409725,0.08159632,0.049644567,inf,inf,inf,inf,inf,1,1,1,1,3,2,2,1,2,1,1,1,0,2,0,0
1777227357373000,1777227357373000,1777227106893000,47.397742099999995,8.5455942,103.0843,-0.038551897,0.08169556,-0.0019206639,-0.002875626,-488.1121,-0.010852208,-0.008118608,-0.015592944,0.0014530546,-0.0017447465,0.0049493075,-6.0223043e-05,-0.009761551,-0.06504739,0.007159542,-0.007332127,0.0002956622,-0.018330326,-0.0042710165,2.0428379e-05,488.1121,0.010009766,1e-04,-488.1121,0.11988011,0.11277187,0.07994839,0.04919856,inf,inf,inf,inf,inf,1,1,1,1,3,2,2,1,2,1,1,1,0,2,0,0
1777227357381000,1777227357381000,1777227106893000,47.397742099999995,8.5455942,103.08427,-0.0386119,0.081726074,-0.0019206639,-0.002875626,-488.1121,-0.01096813,-0.0084357355,-0.015577682,0.0014577091,-0.0017447465,0.0049493075,-6.0223043e-05,-0.021182846,-0.0427695,-0.0048116776,-0.0073512127,0.00029576497,-0.018349,-0.0042710165,2.0472535e-05,488.1121,0.010009766,1e-04,-488.1121,0.12028204,0.11296304,0.080247775,0.049271356,inf,inf,inf,inf,inf,1,1,1,1,3,2,2,1,2,1,1,1,0,2,0,0
1777227357389000,1777227357389000,1777227106893000,47.397742099999995,8.5455942,103.084236,-0.038671814,0.081726074,-0.0019206639,-0.002875626,-488.1121,-0.01153783,-0.008214867,-0.015564111,0.001456463,-0.0017447465,0.0049493075,-6.0223043e-05,-0.077736154,0.024561152,-0.0048037614,-0.0073126117,0.00029586777,-0.01831015,-0.0042710165,2.051673e-05,488.1121,0.010009766,1e-04,-488.1121,0.12068672,0.11321331,0.080548026,0.049354274,inf,inf,inf,inf,inf,1,1,1,1,3,2,2,1,2,1,1,1,0,2,0,0
1777227357397000,1777227357397000,1777227106893000,47.397742099999995,8.5455942,103.0842,-0.038730063,0.081726074,-0.0019206639,-0.002875626,-488.1121,-0.011748002,-0.008131815,-0.015226789,0.0017749444,-0.0017447465,0.0049493075,-6.0223043e-05,-0.03262938,0.0074156947,0.035878267,-0.007226979,0.00029597062,-0.018224433,-0.0042710165,2.0560961e-05,488.1121,0.010009766,1e-04,-488.1121,0.121094145,0.113464415,0.080847465,0.04943706,inf,inf,inf,inf,inf,1,1,1,1,3,2,2,1,2,1,1,1,0,2,0,0
1777227357405000,1777227357405000,1777227106893000,47.397742099999995,8.5455942,103.08416,-0.038788207,0.081726074,-0.0019206639,-0.002875626,-488.1121,-0.0116439015,-0.008094956,-0.015336635,0.0016423729,-0.0017447465,0.0049493075,-6.0223043e-05,0.006778854,0.00177445,-0.019811092,-0.0072157695,0.00029527102,-0.018213298,-0.0042710165,2.0593949e-05,488.1121,0.010009766,1e-04,-488.1121,0.12150189,0.11371635,0.08113798,0.049519725,inf,inf,inf,inf,inf,1,1,1,1,3,2,2,1,2,1,1,1,0,2,0,0
1777227357413000,1777227357413000,1777227106893000,47.397742099999995,8.5455942,103.08412,-0.038845688,0.08169556,-0.0019206639,-0.002875626,-488.1121,-0.011686503,-0.008041344,-0.015668247,0.0012842794,-0.0017447465,0.0049493075,-6.0223043e-05,-0.011403731,0.0039448584,-0.047331207,-0.0072529423,0.00029537358,-0.018251142,-0.0042710165,2.063824e-05,488.1121,0.010009766,1e-04,-488.1121,0.12191478,0.113969125,0.08143791,0.04960226,inf,inf,inf,inf,inf,1,1,1,1,3,2,2,1,2,1,1,1,0,2,0,0
1777227357421000,1777227357421000,1777227106893000,47.397742099999995,8.5455942,103.084076,-0.03889609,0.081726074,-0.0019206639,-0.002875626,-488.1121,-0.011696071,-0.007690972,-0.016024634,0.0009241888,-0.0017447465,0.0049493075,-6.0223043e-05,-0.0077170655,0.040388037,-0.051537525,-0.007215394,0.0002954603,-0.018214414,-0.0042710165,2.0405048e-05,488.1121,0.010009766,1e-04,-488.1121,0.119683184,0.11264886,0.07980297,0.049158137,inf,inf,inf,inf,inf,1,1,1,1,3,2,2,1,2,1,1,1,0,2,0,0
1777227357429000,1777227357429000,1777227106893000,47.397742099999995,8.5455942,103.08404,-0.038944855,0.081726074,-0.0019206639,-0.002875626,-488.1121,-0.011970507,-0.00768383,-0.01608081,0.000859834,-0.0017447465,0.0049493075,-6.0223043e-05,-0.040668797,-0.0024174599,-0.013784039,-0.0072181467,0.00029556308,-0.018218182,-0.0042710165,2.0449195e-05,488.1121,0.010009766,1e-04,-488.1121,0.12008379,0.112898014,0.08010195,0.049241226,inf,inf,inf,inf,inf,1,1,1,1,3,2,2,1,2,1,1,1,0,2,0,0
1777227357437000,1777227357437000,1777227106893000,47.397742099999995,8.5455942,103.08399,-0.038993984,0.081726074,-0.0019206639,-0.002875626,-488.1121,-0.012177433,-0.0077395407,-0.016076041,0.00085409626,-0.0017447465,0.0049493075,-6.0223043e-05,-0.032074418,-0.010181245,-0.006007496,-0.0072569456,0.00029566576,-0.018258128,-0.0042710165,2.0493368e-05,488.1121,0.010009766,1e-04,-488.1121,0.12048713,0.11308943,0.0804008,0.049313907,inf,inf,inf,inf,inf,1,1,1,1,3,2,2,1,2,1,1,1,0,2,0,0
1777227357445000,1777227357445000,1777227106893000,47.397742099999995,8.5455942,103.08395,-0.03904446,0.081726074,-0.0019206639,-0.002875626,-488.1121,-0.01244652,-0.008028372,-0.016226128,0.0006892231,-0.0017447465,0.0049493075,-6.0223043e-05,-0.0396961,-0.039234463,-0.025148502,-0.007264744,0.00029576846,-0.018267196,-0.0042710165,2.0537576e-05,488.1121,0.010009766,1e-04,-488.1121,0.12089321,0.11334012,0.0807,0.049396757,inf,inf,inf,inf,inf,1,1,1,1,3,2,2,1,2,1,1,1,0,2,0,0
1777227357453000,1777227357453000,1777227106893000,47.397742099999995,8.5455942,103.08389,-0.039097134,0.081726074,-0.0019206639,-0.002875626,-488.1121,-0.012217271,-0.008334852,-0.016287245,0.0006091848,-0.0017447465,0.0049493075,-6.0223043e-05,0.022744777,-0.04135145,-0.013817566,-0.007225546,0.00029587126,-0.018229391,-0.0042710165,2.0581829e-05,488.1121,0.010009766,1e-04,-488.1121,0.12130204,0.113591656,0.08099991,0.049479477,inf,inf,inf,inf,inf,1,1,1,1,3,2,2,1,2,1,1,1,0,2,0,0
1777227357461000,1777227357461000,1777227106893000,47.397742099999995,8.5455942,103.08385,-0.03915255,0.08169556,-0.0019206639,-0.002875626,-488.1121,-0.012330932,-0.0086456705,-0.016244423,0.0006291103,-0.0017447465,0.0049493075,-6.0223043e-05,-0.01996873,-0.041812193,-0.00062165776,-0.0072565284,0.0002959741,-0.018261887,-0.0042710165,2.0626117e-05,488.1121,0.010009766,1e-04,-488.1121,0.12171363,0.11384402,0.08130004,0.049562074,inf,inf,inf,inf,inf,1,1,1,1,3,2,2,1,2,1,1,1,0,2,0,0
1777227357469000,1777227357469000,1777227106893000,47.397742099999995,8.5455942,103.08379,-0.039211575,0.08169556,-0.0019206639,-0.002875626,-488.1121,-0.012540622,-0.00891419,-0.016236648,0.00061014475,-0.0017447465,0.0049493075,-6.0223043e-05,-0.031841077,-0.03614232,-0.0048051584,-0.007279928,0.00029527507,-0.018286914,-0.0042710165,2.065909e-05,488.1121,0.010009766,1e-04,-488.1121,0.12212547,0.11409722,0.081590384,0.04964454,inf,inf,inf,inf,inf,1,1,1,1,3,2,2,1,2,1,1,1,0,2,0,0
1777227357477000,1777227357477000,1777227106893000,47.397742099999995,8.5455942,103.08374,-0.03926564,0.08169556,-0.0019206639,-0.002875626,-488.1121,-0.012434815,-0.008790606,-0.01612883,0.0007158553,-0.0017447465,0.0049493075,-6.0223043e-05,0.006961296,0.012195796,0.006528571,-0.0073147886,0.00029536165,-0.018325804,-0.0042710165,2.04239e-05,488.1121,0.010009766,1e-04,-488.1121,0.11987901,0.11277184,0.0799425,0.049198534,inf,inf,inf,inf,inf,1,1,1,1,3,2,2,1,2,1,1,1,0,2,0,0
1777227357485000,1777227357485000,1777227106893000,47.397742099999995,8.5455942,103.083694,-0.039318986,0.08169556,-0.0019206639,-0.002875626,-488.1121,-0.012400497,-0.0088151535,-0.01592672,0.0009121377,-0.0017447465,0.0049493075,-6.0223043e-05,-0.0018050168,-0.00623128,0.018511897,-0.007269597,0.0002954644,-0.0182848,-0.0042710165,2.0468065e-05,488.1121,0.010009766,1e-04,-488.1121,0.120280914,0.11296301,0.08024211,0.04927133,inf,inf,inf,inf,inf,1,1,1,1,3,2,2,1,2,1,1,1,0,2,0,0
1777227357493000,1777227357493000,1777227106893000,47.397742099999995,8.5455942,103.08364,-0.039374035,0.08169556,-0.0019206639,-0.002875626,-488.1121,-0.012197971,-0.009052532,-0.015946666,0.00088182284,-0.0017447465,0.0049493075,-6.0223043e-05,0.01937702,-0.032745708,-0.0090249805,-0.007270086,0.00029556715,-0.018289583,-0.0042710165,2.0512267e-05,488.1121,0.010009766,1e-04,-488.1121,0.120685555,0.113213286,0.0805421,0.049354248,inf,inf,inf,inf,inf,1,1,1,1,3,2,2,1,2,1,1,1,0,2,0,0
1777227357501000,1777227357501000,1777227106893000,47.397742099999995,8.5455942,103.083595,-0.03942982,0.08169556,-0.0019206639,-0.002875626,-488.1121,-0.011950724,-0.009057621,-0.015863068,0.0009507111,-0.0017447465,0.0049493075,-6.0223043e-05,0.02512527,-0.0036257636,0.0041313465,-0.0072811493,0.0002956699,-0.01830503,-0.0042710165,2.0556494e-05,488.1121,0.010009766,1e-04,-488.1121,0.12109295,0.113464385,0.08084235,0.049437035,inf,inf,inf,inf,inf,1,1,1,1,3,2,2,1,2,1,1,1,0,2,0,0
1777227357509000,1777227357509000,1777227106893000,47.397742099999995,8.5455942,103.08354,-0.03948511,0.08169556,-0.0019206639,-0.002875626,-488.1121,-0.011974962,-0.008804183,-0.016111463,0.0006834806,-0.0017447465,0.0049493075,-6.0223043e-05,-0.0086574,0.028765984,-0.037160233,-0.007276134,0.00029577268,-0.018304493,-0.0042710165,2.060076e-05,488.1121,0.010009766,1e-04,-488.1121,0.1215031,0.11371633,0.081142984,0.0495197,inf,inf,inf,inf,inf,1,1,1,1,3,2,2,1,2,1,1,1,0,2,0,0
1777227357517000,1777227357517000,1777227106893000,47.397742099999995,8.5455942,103.083496,-0.039539196,0.08169556,-0.0019206639,-0.002875626,-488.1121,-0.012057913,-0.0089193005,-0.016270358,0.00050184835,-0.0017447465,0.0049493075,-6.0223043e-05,-0.015853833,-0.017220633,-0.02577109,-0.0072678374,0.0002958755,-0.018300764,-0.0042710165,2.0645068e-05,488.1121,0.010009766,1e-04,-488.1121,0.12191601,0.1139691,0.081443876,0.049602233,inf,inf,inf,inf,inf,1,1,1,1,3,2,2,1,2,1,1,1,0,2,0,0
1777227357525000,1777227357525000,1777227106893000,47.397742099999995,8.5455942,103.08344,-0.039588794,0.08169556,-0.0019206639,-0.002875626,-488.1121,-0.011915156,-0.009390166,-0.01672954,5.0609873e-05,-0.0017447465,0.0049493075,-6.0223043e-05,0.0117830895,-0.0625928,-0.06467709,-0.0072573395,0.00029596267,-0.018294916,-0.0042710165,2.0411677e-05,488.1121,0.010009766,1e-04,-488.1121,0.119684264,0.11264884,0.079808205,0.04915812,inf,inf,inf,inf,inf,1,1,1,1,3,2,2,1,2,1,1,1,0,2,0,0
1777227357533000,1777227357533000,1777227106893000,47.397742099999995,8.5455942,103.08339,-0.03964146,0.08169556,-0.0019206639,-0.002875626,-488.1121,-0.011631456,-0.009546236,-0.016826808,-4.361727e-05,-0.0017447465,0.0049493075,-6.0223043e-05,0.029552154,-0.023139881,-0.019202938,-0.007224311,0.0002960655,-0.018266682,-0.0042710165,2.045582e-05,488.1121,0.010009766,1e-04,-488.1121,0.12008489,0.11289799,0.08010728,0.04924121,inf,inf,inf,inf,inf,1,1,1,1,3,2,2,1,2,1,1,1,0,2,0,0
1777227357541000,1777227357541000,1777227106893000,47.397742099999995,8.5455942,103.08334,-0.03969412,0.08169556,-0.0019206639,-0.002875626,-488.1121,-0.011874508,-0.009473674,-0.01705993,-0.00027842802,-0.0017447465,0.0049493075,-6.0223043e-05,-0.03625325,0.005516865,-0.03594113,-0.0072264033,0.00029536552,-0.018273594,-0.0042710165,2.048886e-05,488.1121,0.010009766,1e-04,-488.1121,0.12048597,0.1130894,0.08039711,0.049313888,inf,inf,inf,inf,inf,1,1,1,1,3,2,2,1,2,1,1,1,0,2,0,0
1777227357549000,1777227357549000,1777227106893000,47.397742099999995,8.5455942,103.08329,-0.03974782,0.08169556,-0.0019206639,-0.002875626,-488.1121,-0.011936014,-0.009653376,-0.017395353,-0.00062012847,-0.0017447465,0.0049493075,-6.0223043e-05,-0.013414489,-0.025918156,-0.048507467,-0.007260579,0.00029546808,-0.018312505,-0.0042710165,2.0533065e-05,488.1121,0.010009766,1e-04,-488.1121,0.120892026,0.113340095,0.08069578,0.04939674,inf,inf,inf,inf,inf,1,1,1,1,3,2,2,1,2,1,1,1,0,2,0,0
1777227357557000,1777227357557000,1777227106893000,47.397742099999995,8.5455942,103.083244,-0.03980237,0.08169556,-0.0019206639,-0.002875626,-488.1121,-0.011951898,-0.009685639,-0.017416546,-0.0006520424,-0.0017447465,0.0049493075,-6.0223043e-05,-0.007572846,-0.0073917406,-0.009013805,-0.007159435,0.00029557073,-0.018216107,-0.0042710165,2.0577309e-05,488.1121,0.010009766,1e-04,-488.1121,0.12130083,0.11359163,0.08099601,0.049479462,inf,inf,inf,inf,inf,1,1,1,1,3,2,2,1,2,1,1,1,0,2,0,0
1777227357565000,1777227357565000,1777227106893000,47.397742099999995,8.5455942,103.08319,-0.039857402,0.08166504,-0.0019206639,-0.002875626,-488.1121,-0.011836308,-0.009670476,-0.01728625,-0.00053668645,-0.0017447465,0.0049493075,-6.0223043e-05,0.009001339,-0.0013728292,0.010130926,-0.0070848865,0.0002956734,-0.018146317,-0.0042710165,2.0621592e-05,488.1121,0.010009766,1e-04,-488.1121,0.121712394,0.11384399,0.08129703,0.049562056,inf,inf,inf,inf,inf,1,1,1,1,3,2,2,1,2,1,1,1,0,2,0,0
1777227357573000,1777227357573000,1777227106893000,47.397742099999995,8.5455942,103.08314,-0.03991325,0.08166504,-0.0019206639,-0.002875626,-488.1121,-0.012132462,-0.009840991,-0.017200455,-0.00046979642,-0.0017447465,0.0049493075,-6.0223043e-05,-0.04227065,-0.024466049,0.004771165,-0.0070795952,0.00029564078,-0.018145777,-0.0042710165,2.0663792e-05,488.1121,0.010009766,1e-04,-488.1121,0.1221263,0.1140972,0.0815967,0.049644526,inf,inf,inf,inf,inf,1,1,1,1,3,2,2,1,2,1,1,1,0,2,0,0
1777227357581000,1777227357581000,1777227106893000,47.397742099999995,8.5455942,103.08309,-0.039957356,0.08166504,-0.0019206639,-0.002875626,-488.1121,-0.012205114,-0.010160937,-0.017270358,-0.0005259043,-0.0017447465,0.0049493075,-6.0223043e-05,-0.015660407,-0.044343002,-0.016181262,-0.007059432,0.0002957278,-0.018129326,-0.0042710165,2.042839e-05,488.1121,0.010009766,1e-04,-488.1121,0.1198797,0.11277182,0.07994959,0.049198523,inf,inf,inf,inf,inf,1,1,1,1,3,2,2,1,2,1,1,1,0,2,0,0
1777227357589000,1777227357589000,1777227106893000,47.397742099999995,8.5455942,103.083046,-0.04000504,0.08169556,-0.0019206639,-0.002875626,-488.1121,-0.012421775,-0.0104458565,-0.017341448,-0.00058616826,-0.0017447465,0.0049493075,-6.0223043e-05,-0.033488758,-0.039842214,-0.016166361,-0.0069188173,0.00029583048,-0.01799249,-0.0042710165,2.0472538e-05,488.1121,0.010009766,1e-04,-488.1121,0.12028163,0.11296299,0.08024875,0.04927132,inf,inf,inf,inf,inf,1,1,1,1,3,2,2,1,2,1,1,1,0,2,0,0
1777227357597000,1777227357597000,1777227106893000,47.397742099999995,8.5455942,103.083,-0.040054187,0.08169556,-0.0019206639,-0.002875626,-488.1121,-0.011966955,-0.010530278,-0.01752985,-0.0007686003,-0.0017447465,0.0049493075,-6.0223043e-05,0.050611768,-0.014661681,-0.030595342,-0.0069071054,0.0002959332,-0.01798454,-0.0042710165,2.0516727e-05,488.1121,0.010009766,1e-04,-488.1121,0.1206863,0.11321326,0.08054856,0.049354233,inf,inf,inf,inf,inf,1,1,1,1,3,2,2,1,2,1,1,1,0,2,0,0
1777227357605000,1777227357605000,1777227106893000,47.397742099999995,8.5455942,103.08296,-0.040105496,0.08169556,-0.0019206639,-0.002875626,-488.1121,-0.011834563,-0.010710032,-0.017542677,-0.00078010344,-0.0017447465,0.0049493075,-6.0223043e-05,0.010628254,-0.026337074,-0.0084200865,-0.006912454,0.00029523464,-0.017993623,-0.0042710165,2.0549749e-05,488.1121,0.010009766,1e-04,-488.1121,0.12109136,0.11346436,0.08083915,0.04943702,inf,inf,inf,inf,inf,1,1,1,1,3,2,2,1,2,1,1,1,0,2,0,0
1777227357613000,1777227357613000,1777227106893000,47.397742099999995,8.5455942,103.08292,-0.040159993,0.08169556,-0.0019206639,-0.002875626,-488.1121,-0.011698977,-0.011058084,-0.017499758,-0.0007403348,-0.0017447465,0.0049493075,-6.0223043e-05,0.011182562,-0.047268707,-0.001230277,-0.006901955,0.00029533714,-0.017987775,-0.0042710165,2.0594001e-05,488.1121,0.010009766,1e-04,-488.1121,0.12150148,0.113716304,0.08113899,0.049519684,inf,inf,inf,inf,inf,1,1,1,1,3,2,2,1,2,1,1,1,0,2,0,0
1777227357621000,1777227357621000,1777227106893000,47.397742099999995,8.5455942,103.08287,-0.04021541,0.08169556,-0.0019206639,-0.002875626,-488.1121,-0.012002872,-0.010898128,-0.017635584,-0.0008836224,-0.0017447465,0.0049493075,-6.0223043e-05,-0.043599136,0.01633443,-0.023358034,-0.0068819053,0.00029543968,-0.017972346,-0.0042710165,2.063829e-05,488.1121,0.010009766,1e-04,-488.1121,0.121914364,0.11396907,0.08143917,0.049602218,inf,inf,inf,inf,inf,1,1,1,1,3,2,2,1,2,1,1,1,0,2,0,0
1777227357629000,1777227357629000,1777227106893000,47.397742099999995,8.5455942,103.08283,-0.0402473,0.08169556,-0.0019206639,-0.002875626,-488.1121,-0.012474566,-0.010464717,-0.017426098,-0.00065532915,-0.0017447465,0.0049493075,-6.0223043e-05,-0.06594514,0.048846688,0.018546822,-0.0069172694,0.00029552658,-0.018012304,-0.0042710165,2.0405067e-05,488.1121,0.010009766,1e-04,-488.1121,0.11968279,0.112648815,0.07980382,0.0491581,inf,inf,inf,inf,inf,1,1,1,1,3,2,2,1,2,1,1,1,0,2,0,0
1777227357637000,1777227357637000,1777227106893000,47.397742099999995,8.5455942,103.082794,-0.040277816,0.081726074,-0.0019206639,-0.002875626,-488.1121,-0.012602509,-0.010307787,-0.017137308,-0.00035292865,-0.0017447465,0.0049493075,-6.0223043e-05,-0.022796866,0.014437711,0.028705223,-0.006943046,0.00029562932,-0.018042695,-0.0042710165,2.044921e-05,488.1121,0.010009766,1e-04,-488.1121,0.12008339,0.11289797,0.08010243,0.04924119,inf,inf,inf,inf,inf,1,1,1,1,3,2,2,1,2,1,1,1,0,2,0,0
1777227357645000,1777227357645000,1777227106893000,47.397742099999995,8.5455942,103.082756,-0.040307447,0.081726074,-0.0019206639,-0.002875626,-488.1121,-0.012707047,-0.010029143,-0.01715662,-0.00036265305,-0.0017447465,0.0049493075,-6.0223043e-05,-0.019691948,0.029794317,-0.009607523,-0.0069720917,0.00029573202,-0.018076256,-0.0042710165,2.0493382e-05,488.1121,0.010009766,1e-04,-488.1121,0.12048673,0.113089375,0.08040194,0.04931387,inf,inf,inf,inf,inf,1,1,1,1,3,2,2,1,2,1,1,1,0,2,0,0
1777227357653000,1777227357653000,1777227106893000,47.397742099999995,8.5455942,103.08271,-0.040336948,0.081726074,-0.0019206639,-0.002875626,-488.1121,-0.012452769,-0.009967837,-0.017422207,-0.00062354375,-0.0017447465,0.0049493075,-6.0223043e-05,0.025331631,0.0027644925,-0.040159557,-0.0069937813,0.00029583476,-0.018102359,-0.0042710165,2.0537593e-05,488.1121,0.010009766,1e-04,-488.1121,0.120892815,0.11334007,0.080701485,0.04939672,inf,inf,inf,inf,inf,1,1,1,1,3,2,2,1,2,1,1,1,0,2,0,0
1777227357661000,1777227357661000,1777227106893000,47.397742099999995,8.5455942,103.08267,-0.040366083,0.081726074,-0.0019206639,-0.002875626,-488.1121,-0.012120363,-0.0097346185,-0.017483775,-0.0006851028,-0.0017447465,0.0049493075,-6.0223043e-05,0.03526644,0.024393955,-0.014431308,-0.0069942805,0.0002959375,-0.018107165,-0.0042710165,2.0581836e-05,488.1121,0.010009766,1e-04,-488.1121,0.12130164,0.113591604,0.081002064,0.04947944,inf,inf,inf,inf,inf,1,1,1,1,3,2,2,1,2,1,1,1,0,2,0,0
1777227357669000,1777227357669000,1777227106893000,47.397742099999995,8.5455942,103.082634,-0.04039485,0.081726074,-0.0019206639,-0.002875626,-488.1121,-0.012207552,-0.009708966,-0.017340858,-0.0005466379,-0.0017447465,0.0049493075,-6.0223043e-05,-0.017018627,-0.0014218066,0.01134863,-0.0069458866,0.00029604038,-0.01806297,-0.0042710165,2.0626128e-05,488.1121,0.010009766,1e-04,-488.1121,0.121713236,0.11384398,0.081302665,0.049562037,inf,inf,inf,inf,inf,1,1,1,1,3,2,2,1,2,1,1,1,0,2,0,0
1777227357677000,1777227357677000,1777227106893000,47.397742099999995,8.5455942,103.08259,-0.040426586,0.081726074,-0.0019206639,-0.002875626,-488.1121,-0.012277191,-0.010138366,-0.01741985,-0.0006342941,-0.0017447465,0.0049493075,-6.0223043e-05,-0.0145931095,-0.05818428,-0.016177071,-0.0069497856,0.00029534148,-0.018070959,-0.0042710165,2.0659105e-05,488.1121,0.010009766,1e-04,-488.1121,0.12212508,0.11409718,0.08159474,0.049644507,inf,inf,inf,inf,inf,1,1,1,1,3,2,2,1,2,1,1,1,0,2,0,0
1777227357685000,1777227357685000,1777227106893000,47.397742099999995,8.5455942,103.08256,-0.040445212,0.081726074,-0.0019206639,-0.002875626,-488.1121,-0.012119381,-0.010028783,-0.017455978,-0.0006556134,-0.0017447465,0.0049493075,-6.0223043e-05,0.012589293,0.007833886,-0.012014526,-0.0070156287,0.0002954281,-0.018140731,-0.0042710165,2.0423819e-05,488.1121,0.010009766,1e-04,-488.1121,0.119878575,0.112771794,0.07994806,0.049198505,inf,inf,inf,inf,inf,1,1,1,1,3,2,2,1,2,1,1,1,0,2,0,0
1777227357693000,1777227357693000,1777227106893000,47.397742099999995,8.5455942,103.08253,-0.040465157,0.08175659,-0.0019206639,-0.002875626,-488.1121,-0.012180339,-0.010182457,-0.017402327,-0.00058997335,-0.0017447465,0.0049493075,-6.0223043e-05,-0.014567758,-0.024915835,-0.00062072644,-0.007046343,0.00029553066,-0.018175356,-0.0042710165,2.0467967e-05,488.1121,0.010009766,1e-04,-488.1121,0.1202805,0.11296297,0.0802478,0.049271293,inf,inf,inf,inf,inf,1,1,1,1,3,2,2,1,2,1,1,1,0,2,0,0
1777227357701000,1777227357701000,1777227106893000,47.397742099999995,8.5455942,103.0825,-0.040487204,0.08175659,-0.0019206639,-0.002875626,-488.1121,-0.011992805,-0.010211018,-0.017384205,-0.0005645153,-0.0017447465,0.0049493075,-6.0223043e-05,0.016670028,-0.009120436,-0.0048256475,-0.007026037,0.00029563328,-0.018158846,-0.0042710165,2.0512154e-05,488.1121,0.010009766,1e-04,-488.1121,0.12068516,0.11321324,0.080548145,0.04935421,inf,inf,inf,inf,inf,1,1,1,1,3,2,2,1,2,1,1,1,0,2,0,0
1777227357709000,1777227357709000,1777227106893000,47.397742099999995,8.5455942,103.08246,-0.040509403,0.08175659,-0.0019206639,-0.002875626,-488.1121,-0.011889013,-0.009946663,-0.017382318,-0.0005597248,-0.0017447465,0.0049493075,-6.0223043e-05,0.006377681,0.027645823,-0.0066254283,-0.006978157,0.00029573592,-0.018114649,-0.0042710165,2.0556377e-05,488.1121,0.010009766,1e-04,-488.1121,0.121092565,0.11346434,0.08084799,0.049436998,inf,inf,inf,inf,inf,1,1,1,1,3,2,2,1,2,1,1,1,0,2,0,0
1777227357717000,1777227357717000,1777227106893000,47.397742099999995,8.5455942,103.08243,-0.04053099,0.08175659,-0.0019206639,-0.002875626,-488.1121,-0.0117602805,-0.009815592,-0.01760246,-0.0007812454,-0.0017447465,0.0049493075,-6.0223043e-05,0.009670554,0.0111363055,-0.03415625,-0.0069943145,0.0002958386,-0.018134374,-0.0042710165,2.0600639e-05,488.1121,0.010009766,1e-04,-488.1121,0.12150273,0.11371628,0.081147775,0.04951966,inf,inf,inf,inf,inf,1,1,1,1,3,2,2,1,2,1,1,1,0,2,0,0
1777227357725000,1777227357725000,1777227106893000,47.397742099999995,8.5455942,103.0824,-0.04055213,0.08175659,-0.0019206639,-0.002875626,-488.1121,-0.011648774,-0.009460498,-0.017900998,-0.0010853084,-0.0017447465,0.0049493075,-6.0223043e-05,0.0076864664,0.039292406,-0.043739095,-0.0068966094,0.00029594134,-0.018040124,-0.0042710165,2.0644937e-05,488.1121,0.010009766,1e-04,-488.1121,0.12191565,0.11396906,0.08144778,0.049602196,inf,inf,inf,inf,inf,1,1,1,1,3,2,2,1,2,1,1,1,0,2,0,0
1777227357733000,1777227357733000,1777227106893000,47.397742099999995,8.5455942,103.08239,-0.04054913,0.08175659,-0.0019206639,-0.002875626,-488.1121,-0.011573881,-0.009265049,-0.018317316,-0.0014757004,-0.0017447465,0.0049493075,-6.0223043e-05,0.0012590444,0.0175909,-0.05989009,-0.0069161863,0.0002960287,-0.018063042,-0.0042710165,2.0411466e-05,488.1121,0.010009766,1e-04,-488.1121,0.119683884,0.11264879,0.07981236,0.049158078,inf,inf,inf,inf,inf,1,1,1,1,3,2,2,1,2,1,1,1,0,2,0,0
1777227357741000,1777227357741000,1777227106893000,47.397742099999995,8.5455942,103.082375,-0.04054886,0.08178711,-0.0019206639,-0.002875626,-488.1121,-0.011701475,-0.0094524855,-0.01829973,-0.0014373484,-0.0017447465,0.0049493075,-6.0223043e-05,-0.024186078,-0.029962743,-0.0054002735,-0.007002823,0.00029532987,-0.018153055,-0.0042710165,2.0444546e-05,488.1121,0.010009766,1e-04,-488.1121,0.12008228,0.11289795,0.0801024,0.049241167,inf,inf,inf,inf,inf,1,1,1,1,3,2,2,1,2,1,1,1,0,2,0,0
1777227357749000,1777227357749000,1777227106893000,47.397742099999995,8.5455942,103.08237,-0.04055116,0.08178711,-0.0019206639,-0.002875626,-488.1121,-0.011573231,-0.0096645495,-0.018102206,-0.0012239941,-0.0017447465,0.0049493075,-6.0223043e-05,0.008004062,-0.03285976,0.017331446,-0.0070010605,0.00029543246,-0.018155716,-0.0042710165,2.0488718e-05,488.1121,0.010009766,1e-04,-488.1121,0.12048561,0.11308936,0.08040244,0.049313847,inf,inf,inf,inf,inf,1,1,1,1,3,2,2,1,2,1,1,1,0,2,0,0
1777227357757000,1777227357757000,1777227106893000,47.397742099999995,8.5455942,103.08235,-0.04055694,0.08178711,-0.0019206639,-0.002875626,-488.1121,-0.011824527,-0.009757283,-0.017853813,-0.0009645014,-0.0017447465,0.0049493075,-6.0223043e-05,-0.039231997,-0.017771665,0.023927538,-0.0069333385,0.00029553514,-0.01809233,-0.0042710165,2.0532934e-05,488.1121,0.010009766,1e-04,-488.1121,0.12089168,0.11334006,0.08070218,0.049396697,inf,inf,inf,inf,inf,1,1,1,1,3,2,2,1,2,1,1,1,0,2,0,0
1777227357765000,1777227357765000,1777227106893000,47.397742099999995,8.5455942,103.08234,-0.040563673,0.08178711,-0.0019206639,-0.002875626,-488.1121,-0.011876911,-0.009648183,-0.017851556,-0.0009557064,-0.0017447465,0.0049493075,-6.0223043e-05,-0.014164188,0.0076291002,-0.00660913,-0.0069445376,0.00029563776,-0.01810778,-0.0042710165,2.0577176e-05,488.1121,0.010009766,1e-04,-488.1121,0.1213005,0.11359159,0.08100206,0.04947942,inf,inf,inf,inf,inf,1,1,1,1,3,2,2,1,2,1,1,1,0,2,0,0
1777227357773000,1777227357773000,1777227106893000,47.397742099999995,8.5455942,103.08232,-0.04057115,0.08178711,-0.0019206639,-0.002875626,-488.1121,-0.011831052,-0.009469806,-0.01806182,-0.0011638133,-0.0017447465,0.0049493075,-6.0223043e-05,-0.0016939745,0.016498769,-0.032950655,-0.0069196345,0.0002956054,-0.018087015,-0.0042710165,2.061936e-05,488.1121,0.010009766,1e-04,-488.1121,0.121711686,0.113843955,0.08130077,0.04956202,inf,inf,inf,inf,inf,1,1,1,1,3,2,2,1,2,1,1,1,0,2,0,0
1777227357781000,1777227357781000,1777227106893000,47.397742099999995,8.5455942,103.0823,-0.040577885,0.08178711,-0.0019206639,-0.002875626,-488.1121,-0.011664626,-0.00909738,-0.018029656,-0.0011337155,-0.0017447465,0.0049493075,-6.0223043e-05,0.013571184,0.040915154,-0.0024298204,-0.006926524,0.000295708,-0.018097151,-0.0042710165,2.066367e-05,488.1121,0.010009766,1e-04,-488.1121,0.12212603,0.114097156,0.08160053,0.04964449,inf,inf,inf,inf,inf,1,1,1,1,3,2,2,1,2,1,1,1,0,2,0,0
1777227357789000,1777227357789000,1777227106893000,47.397742099999995,8.5455942,103.0823,-0.040568344,0.08181763,-0.0019206639,-0.002875626,-488.1121,-0.011755189,-0.009023011,-0.01796769,-0.001045509,-0.0017447465,0.0049493075,-6.0223043e-05,-0.01984848,0.0023024175,-2.2817401e-05,-0.006942057,0.0002957951,-0.018115819,-0.0042710165,2.042822e-05,488.1121,0.010009766,1e-04,-488.1121,0.1198794,0.11277178,0.07995244,0.04919848,inf,inf,inf,inf,inf,1,1,1,1,3,2,2,1,2,1,1,1,0,2,0,0
1777227357797000,1777227357797000,1777227106893000,47.397742099999995,8.5455942,103.08228,-0.04056088,0.081848145,-0.0019206639,-0.002875626,-488.1121,-0.011728581,-0.009057588,-0.017830579,-0.0008853866,-0.0017447465,0.0049493075,-6.0223043e-05,-0.004977164,-0.01112615,0.009555834,-0.006928842,0.0002958978,-0.018105729,-0.0042710165,2.0472373e-05,488.1121,0.010009766,1e-04,-488.1121,0.12028134,0.112962954,0.08025172,0.04927127,inf,inf,inf,inf,inf,1,1,1,1,3,2,2,1,2,1,1,1,0,2,0,0
1777227357805000,1777227357805000,1777227106893000,47.397742099999995,8.5455942,103.082275,-0.04055428,0.081848145,-0.0019206639,-0.002875626,-488.1121,-0.011496631,-0.008818746,-0.018164802,-0.0012016769,-0.0017447465,0.0049493075,-6.0223043e-05,0.02090934,0.02324031,-0.049117483,-0.00689122,0.00029600054,-0.018071122,-0.0042710165,2.051656e-05,488.1121,0.010009766,1e-04,-488.1121,0.120686024,0.113213226,0.080552064,0.04935419,inf,inf,inf,inf,inf,1,1,1,1,3,2,2,1,2,1,1,1,0,2,0,0
1777227357813000,1777227357813000,1777227106893000,47.397742099999995,8.5455942,103.08227,-0.04054862,0.081848145,-0.0019206639,-0.002875626,-488.1121,-0.011425274,-0.0089138765,-0.018256595,-0.0012803859,-0.0017447465,0.0049493075,-6.0223043e-05,0.0010648646,-0.018256787,-0.01857709,-0.0068590315,0.0002953022,-0.018041842,-0.0042710165,2.054959e-05,488.1121,0.010009766,1e-04,-488.1121,0.12109109,0.113464326,0.08084271,0.049436975,inf,inf,inf,inf,inf,1,1,1,1,3,2,2,1,2,1,1,1,0,2,0,0
1777227357821000,1777227357821000,1777227106893000,47.397742099999995,8.5455942,103.08226,-0.040546402,0.081848145,-0.0019206639,-0.002875626,-488.1121,-0.011089113,-0.009223424,-0.018048601,-0.0010639904,-0.0017447465,0.0049493075,-6.0223043e-05,0.034369852,-0.04488434,0.019126104,-0.006800852,0.0002954047,-0.017986983,-0.0042710165,2.0593845e-05,488.1121,0.010009766,1e-04,-488.1121,0.12150122,0.11371627,0.08114233,0.049519632,inf,inf,inf,inf,inf,1,1,1,1,3,2,2,1,2,1,1,1,0,2,0,0
1777227357829000,1777227357829000,1777227106893000,47.397742099999995,8.5455942,103.08225,-0.040547114,0.081848145,-0.0019206639,-0.002875626,-488.1121,-0.010672284,-0.00919331,-0.018225523,-0.0012370292,-0.0017447465,0.0049493075,-6.0223043e-05,0.04465713,-0.0022553247,-0.028765293,-0.0067907204,0.00029550726,-0.01798007,-0.0042710165,2.0638137e-05,488.1121,0.010009766,1e-04,-488.1121,0.12191412,0.113969035,0.08144281,0.049602166,inf,inf,inf,inf,inf,1,1,1,1,3,2,2,1,2,1,1,1,0,2,0,0
1777227357837000,1777227357837000,1777227106893000,47.397742099999995,8.5455942,103.08226,-0.040526208,0.08190918,-0.0019206639,-0.002875626,-488.1121,-0.010701996,-0.008901967,-0.018211884,-0.0011813731,-0.0017447465,0.0049493075,-6.0223043e-05,-0.0128894,0.028764026,-0.00660913,-0.006745538,0.000295594,-0.017938012,-0.0042710165,2.0404848e-05,488.1121,0.010009766,1e-04,-488.1121,0.11968251,0.112648785,0.079807654,0.049158048,inf,inf,inf,inf,inf,1,1,1,1,3,2,2,1,2,1,1,1,0,2,0,0
1777227357845000,1777227357845000,1777227106893000,47.397742099999995,8.5455942,103.082275,-0.040504456,0.0819397,-0.0019206639,-0.002875626,-488.1121,-0.010254146,-0.008465761,-0.018348955,-0.0012822002,-0.0017447465,0.0049493075,-6.0223043e-05,0.047049712,0.04707959,-0.02518296,-0.0067280317,0.00029569658,-0.017923657,-0.0042710165,2.0448977e-05,488.1121,0.010009766,1e-04,-488.1121,0.12008312,0.11289794,0.080106616,0.049241137,inf,inf,inf,inf,inf,1,1,1,1,3,2,2,1,2,1,1,1,0,2,0,0
1777227357853000,1777227357853000,1777227106893000,47.397742099999995,8.5455942,103.08229,-0.04048228,0.081970215,-0.0019206639,-0.002875626,-488.1121,-0.009813978,-0.008407571,-0.018463936,-0.0013655245,-0.0017447465,0.0049493075,-6.0223043e-05,0.046327174,2.9671353e-05,-0.022184102,-0.006745763,0.0002957992,-0.017944444,-0.0042710165,2.0493146e-05,488.1121,0.010009766,1e-04,-488.1121,0.120486476,0.11308935,0.080406055,0.049313817,inf,inf,inf,inf,inf,1,1,1,1,3,2,2,1,2,1,1,1,0,2,0,0
1777227357861000,1777227357861000,1777227106893000,47.397742099999995,8.5455942,103.082306,-0.040462714,0.081970215,-0.0019206639,-0.002875626,-488.1121,-0.009903015,-0.008533709,-0.018710023,-0.0015853702,-0.0017447465,0.0049493075,-6.0223043e-05,-0.01959576,-0.022818377,-0.038322058,-0.00675932,0.0002959019,-0.01796097,-0.0042710165,2.0537353e-05,488.1121,0.010009766,1e-04,-488.1121,0.12089256,0.11334004,0.08070578,0.049396668,inf,inf,inf,inf,inf,1,1,1,1,3,2,2,1,2,1,1,1,0,2,0,0
1777227357869000,1777227357869000,1777227106893000,47.397742099999995,8.5455942,103.08232,-0.040444687,0.08200073,-0.0019206639,-0.002875626,-488.1121,-0.0099664265,-0.008341451,-0.01892932,-0.0017836201,-0.0017447465,0.0049493075,-6.0223043e-05,-0.01617375,0.017172387,-0.034730412,-0.0067442004,0.00029600464,-0.017948732,-0.0042710165,2.0581598e-05,488.1121,0.010009766,1e-04,-488.1121,0.12130141,0.11359158,0.08100636,0.049479388,inf,inf,inf,inf,inf,1,1,1,1,3,2,2,1,2,1,1,1,0,2,0,0
1777227357877000,1777227357877000,1777227106893000,47.397742099999995,8.5455942,103.08234,-0.040426392,0.08200073,-0.0019206639,-0.002875626,-488.1121,-0.009791421,-0.008020119,-0.019145777,-0.0019839709,-0.0017447465,0.0049493075,-6.0223043e-05,0.01370058,0.03349287,-0.034139488,-0.006727035,0.00029530685,-0.017934367,-0.0042710165,2.0614614e-05,488.1121,0.010009766,1e-04,-488.1121,0.12171057,0.11384395,0.08129782,0.049561985,inf,inf,inf,inf,inf,1,1,1,1,3,2,2,1,2,1,1,1,0,2,0,0
1777227357885000,1777227357885000,1777227106893000,47.397742099999995,8.5455942,103.082344,-0.040407714,0.08200073,-0.0019206639,-0.002875626,-488.1121,-0.009711799,-0.007849883,-0.018870844,-0.0016985723,-0.0017447465,0.0049493075,-6.0223043e-05,0.001989611,0.014792099,0.027513595,-0.006690694,0.00029540935,-0.017900825,-0.0042710165,2.0658925e-05,488.1121,0.010009766,1e-04,-488.1121,0.12212488,0.11409715,0.08159941,0.04964445,inf,inf,inf,inf,inf,1,1,1,1,3,2,2,1,2,1,1,1,0,2,0,0
1777227357893000,1777227357893000,1777227106893000,47.397742099999995,8.5455942,103.082375,-0.040368203,0.08203125,-0.0019206639,-0.002875626,-488.1121,-0.009040153,-0.007488068,-0.018744532,-0.0015226572,-0.0017447465,0.0049493075,-6.0223043e-05,0.07436102,0.037226256,0.0071460376,-0.0065979715,0.0002954958,-0.017810823,-0.0042710165,2.0423558e-05,488.1121,0.010009766,1e-04,-488.1121,0.11987835,0.11277177,0.07995204,0.049198452,inf,inf,inf,inf,inf,1,1,1,1,3,2,2,1,2,1,1,1,0,2,0,0
1777227357901000,1777227357901000,1777227106893000,47.397742099999995,8.5455942,103.08241,-0.040329225,0.08206177,-0.0019206639,-0.002875626,-488.1121,-0.008671186,-0.0074905427,-0.018998336,-0.0017317709,-0.0017447465,0.0049493075,-6.0223043e-05,0.036779642,-0.008088743,-0.040128823,-0.0065286458,0.00029559832,-0.017744254,-0.0042710165,2.0467705e-05,488.1121,0.010009766,1e-04,-488.1121,0.12028028,0.11296295,0.08025083,0.04927125,inf,inf,inf,inf,inf,1,1,1,1,3,2,2,1,2,1,1,1,0,2,0,0
1777227357909000,1777227357909000,1777227106893000,47.397742099999995,8.5455942,103.08245,-0.04029331,0.082092285,-0.0019206639,-0.002875626,-488.1121,-0.008763094,-0.007698303,-0.018923787,-0.0016183332,-0.0017447465,0.0049493075,-6.0223043e-05,-0.02058106,-0.033534627,0.0011827796,-0.006509491,0.00029570088,-0.017727748,-0.0042710165,2.0511889e-05,488.1121,0.010009766,1e-04,-488.1121,0.12068495,0.11321321,0.08054961,0.049354162,inf,inf,inf,inf,inf,1,1,1,1,3,2,2,1,2,1,1,1,0,2,0,0
1777227357917000,1777227357917000,1777227106893000,47.397742099999995,8.5455942,103.08248,-0.040260907,0.0821228,-0.0019206639,-0.002875626,-488.1121,-0.008416697,-0.007806608,-0.01900466,-0.001665945,-0.0017447465,0.0049493075,-6.0223043e-05,0.034445718,-0.02089892,-0.017985234,-0.0065021613,0.0002958035,-0.017722966,-0.0042710165,2.0556112e-05,488.1121,0.010009766,1e-04,-488.1121,0.121092364,0.11346432,0.08084938,0.04943695,inf,inf,inf,inf,inf,1,1,1,1,3,2,2,1,2,1,1,1,0,2,0,0
1777227357925000,1777227357925000,1777227106893000,47.397742099999995,8.5455942,103.08252,-0.04023076,0.08215332,-0.0019206639,-0.002875626,-488.1121,-0.0081089465,-0.0077600307,-0.018503325,-0.0011367528,-0.0017447465,0.0049493075,-6.0223043e-05,0.029844828,-0.0013366994,0.055042557,-0.006508781,0.00029590615,-0.017732032,-0.0042710165,2.060037e-05,488.1121,0.010009766,1e-04,-488.1121,0.12150253,0.11371626,0.081150025,0.04951961,inf,inf,inf,inf,inf,1,1,1,1,3,2,2,1,2,1,1,1,0,2,0,0
1777227357933000,1777227357933000,1777227106893000,47.397742099999995,8.5455942,103.08255,-0.0402024,0.08215332,-0.0019206639,-0.002875626,-488.1121,-0.008309618,-0.007812438,-0.018248033,-0.00085878815,-0.0017447465,0.0049493075,-6.0223043e-05,-0.03348183,-0.013515769,0.024531966,-0.0065676994,0.0002960089,-0.017793298,-0.0042710165,2.064467e-05,488.1121,0.010009766,1e-04,-488.1121,0.12191547,0.11396903,0.08145037,0.049602143,inf,inf,inf,inf,inf,1,1,1,1,3,2,2,1,2,1,1,1,0,2,0,0
1777227357941000,1777227357941000,1777227106893000,47.397742099999995,8.5455942,103.0826,-0.04016443,0.082214355,-0.0019206639,-0.002875626,-488.1121,-0.008132573,-0.008004749,-0.018573618,-0.0011252288,-0.0017447465,0.0049493075,-6.0223043e-05,0.012134077,-0.032041024,-0.049707476,-0.0066426755,0.00029609608,-0.01787055,-0.0042710165,2.0411167e-05,488.1121,0.010009766,1e-04,-488.1121,0.11968368,0.11264877,0.07981449,0.04915803,inf,inf,inf,inf,inf,1,1,1,1,3,2,2,1,2,1,1,1,0,2,0,0
1777227357949000,1777227357949000,1777227106893000,47.397742099999995,8.5455942,103.08265,-0.040129606,0.08227539,-0.0019206639,-0.002875626,-488.1121,-0.00811659,-0.007906961,-0.018877402,-0.0013762857,-0.0017447465,0.0049493075,-6.0223043e-05,-0.007835017,0.004545969,-0.04669744,-0.0066377586,0.00029539745,-0.017867912,-0.0042710165,2.0444257e-05,488.1121,0.010009766,1e-04,-488.1121,0.120082095,0.112897925,0.080104105,0.049241118,inf,inf,inf,inf,inf,1,1,1,1,3,2,2,1,2,1,1,1,0,2,0,0
1777227357957000,1777227357957000,1777227106893000,47.397742099999995,8.5455942,103.0827,-0.04009542,0.08230591,-0.0019206639,-0.002875626,-488.1121,-0.008215189,-0.0076698763,-0.018785968,-0.0012383009,-0.0017447465,0.0049493075,-6.0223043e-05,-0.021899777,0.022171685,0.0029904766,-0.0065702097,0.00029549995,-0.017803473,-0.0042710165,2.0488422e-05,488.1121,0.010009766,1e-04,-488.1121,0.120485425,0.11308934,0.08040443,0.0493138,inf,inf,inf,inf,inf,1,1,1,1,3,2,2,1,2,1,1,1,0,2,0,0
1777227357965000,1777227357965000,1777227106893000,47.397742099999995,8.5455942,103.08274,-0.040062364,0.082336426,-0.0019206639,-0.002875626,-488.1121,-0.00857045,-0.007674117,-0.018859545,-0.001271222,-0.0017447465,0.0049493075,-6.0223043e-05,-0.053731166,-0.0077888747,-0.017367302,-0.0065709017,0.00029560248,-0.017807206,-0.0042710165,2.0532625e-05,488.1121,0.010009766,1e-04,-488.1121,0.120891504,0.113340035,0.080704354,0.04939665,inf,inf,inf,inf,inf,1,1,1,1,3,2,2,1,2,1,1,1,0,2,0,0
1777227357973000,1777227357973000,1777227106893000,47.397742099999995,8.5455942,103.08278,-0.040032282,0.08236694,-0.0019206639,-0.002875626,-488.1121,-0.008692827,-0.0078032888,-0.019093271,-0.0014699971,-0.0017447465,0.0049493075,-6.0223043e-05,-0.024166996,-0.023133177,-0.037125774,-0.0066195843,0.00029557015,-0.017858863,-0.0042710165,2.0574767e-05,488.1121,0.010009766,1e-04,-488.1121,0.121299945,0.11359157,0.081002176,0.049479373,inf,inf,inf,inf,inf,1,1,1,1,3,2,2,1,2,1,1,1,0,2,0,0
1777227357981000,1777227357981000,1777227106893000,47.397742099999995,8.5455942,103.08282,-0.040004347,0.08239746,-0.0019206639,-0.002875626,-488.1121,-0.008607579,-0.0077016233,-0.019487007,-0.0018342864,-0.0017447465,0.0049493075,-6.0223043e-05,0.0020193483,0.0059136986,-0.056874003,-0.0066406117,0.0002956727,-0.017882831,-0.0042710165,2.0619038e-05,488.1121,0.010009766,1e-04,-488.1121,0.12171152,0.11384393,0.081303,0.04956197,inf,inf,inf,inf,inf,1,1,1,1,3,2,2,1,2,1,1,1,0,2,0,0
1777227357989000,1777227357989000,1777227106893000,47.397742099999995,8.5455942,103.08285,-0.03997842,0.08239746,-0.0019206639,-0.002875626,-488.1121,-0.00917526,-0.007921145,-0.019475661,-0.001798779,-0.0017447465,0.0049493075,-6.0223043e-05,-0.079372846,-0.03405245,-0.0059930603,-0.0066457456,0.0002957753,-0.017890833,-0.0042710165,2.0663349e-05,488.1121,0.010009766,1e-04,-488.1121,0.122125864,0.11409713,0.08160347,0.04964444,inf,inf,inf,inf,inf,1,1,1,1,3,2,2,1,2,1,1,1,0,2,0,0
1777227357997000,1777227357997000,1777227106893000,47.397742099999995,8.5455942,103.08289,-0.039944574,0.082458496,-0.0019206639,-0.002875626,-488.1121,-0.009335016,-0.008194656,-0.019414594,-0.0016841288,-0.0017447465,0.0049493075,-6.0223043e-05,-0.029761147,-0.041775506,-0.0012172385,-0.0065998,0.0002958617,-0.017847685,-0.0042710165,2.0427833e-05,488.1121,0.010009766,1e-04,-488.1121,0.1198792,0.11277176,0.07995651,0.049198434,inf,inf,inf,inf,inf,1,1,1,1,3,2,2,1,2,1,1,1,0,2,0,0
1777227358005000,1777227358005000,1777227106893000,47.397742099999995,8.5455942,103.08294,-0.03991497,0.08248901,-0.0019206639,-0.002875626,-488.1121,-0.009395037,-0.00844926,-0.019048344,-0.0012664624,-0.0017447465,0.0049493075,-6.0223043e-05,-0.017039023,-0.03919189,0.037091315,-0.0065932567,0.00029596433,-0.017843943,-0.0042710165,2.047198e-05,488.1121,0.010009766,1e-04,-488.1121,0.12028116,0.11296293,0.080256276,0.04927123,inf,inf,inf,inf,inf,1,1,1,1,3,2,2,1,2,1,1,1,0,2,0,0
1777227358013000,1777227358013000,1777227106893000,47.397742099999995,8.5455942,103.08298,-0.03988841,0.08255005,-0.0019206639,-0.002875626,-488.1121,-0.009210175,-0.008527119,-0.018746547,-0.0009202777,-0.0017447465,0.0049493075,-6.0223043e-05,0.0140771875,-0.016940232,0.029310117,-0.0066006477,0.00029526683,-0.017854065,-0.0042710165,2.0505038e-05,488.1121,0.010009766,1e-04,-488.1121,0.120683536,0.113213204,0.08054709,0.049354147,inf,inf,inf,inf,inf,1,1,1,1,3,2,2,1,2,1,1,1,0,2,0,0
1777227358021000,1777227358021000,1777227106893000,47.397742099999995,8.5455942,103.083015,-0.039865065,0.08258057,-0.0019206639,-0.002875626,-488.1121,-0.009258743,-0.0087176515,-0.01888742,-0.0010234818,-0.0017447465,0.0049493075,-6.0223043e-05,-0.014862165,-0.030827103,-0.025755724,-0.0066031953,0.00029536922,-0.017858852,-0.0042710165,2.0549247e-05,488.1121,0.010009766,1e-04,-488.1121,0.12109093,0.1134643,0.08084739,0.049436934,inf,inf,inf,inf,inf,1,1,1,1,3,2,2,1,2,1,1,1,0,2,0,0
1777227358029000,1777227358029000,1777227106893000,47.397742099999995,8.5455942,103.08305,-0.03984487,0.082611084,-0.0019206639,-0.002875626,-488.1121,-0.009390681,-0.008815578,-0.018953688,-0.0010585096,-0.0017447465,0.0049493075,-6.0223043e-05,-0.025046045,-0.01905491,-0.016170552,-0.0065770647,0.00029547163,-0.017834896,-0.0042710165,2.0593496e-05,488.1121,0.010009766,1e-04,-488.1121,0.12150108,0.113716245,0.081148066,0.04951959,inf,inf,inf,inf,inf,1,1,1,1,3,2,2,1,2,1,1,1,0,2,0,0
1777227358037000,1777227358037000,1777227106893000,47.397742099999995,8.5455942,103.083084,-0.039826646,0.0826416,-0.0019206639,-0.002875626,-488.1121,-0.009682199,-0.0086331535,-0.018734552,-0.0008143364,-0.0017447465,0.0049493075,-6.0223043e-05,-0.04476483,0.01617279,0.01975754,-0.00659787,0.0002955742,-0.017857814,-0.0042710165,2.0637792e-05,488.1121,0.010009766,1e-04,-488.1121,0.121914,0.11396902,0.081447706,0.04960213,inf,inf,inf,inf,inf,1,1,1,1,3,2,2,1,2,1,1,1,0,2,0,0
1777227358045000,1777227358045000,1777227106893000,47.397742099999995,8.5455942,103.08312,-0.039802846,0.08267212,-0.0019206639,-0.002875626,-488.1121,-0.009798405,-0.008075141,-0.01858761,-0.00062193023,-0.0017447465,0.0049493075,-6.0223043e-05,-0.024035282,0.062658034,0.009596347,-0.0065569174,0.0002956602,-0.017818911,-0.0042710165,2.0404437e-05,488.1121,0.010009766,1e-04,-488.1121,0.11968236,0.11264876,0.07981212,0.04915801,inf,inf,inf,inf,inf,1,1,1,1,3,2,2,1,2,1,1,1,0,2,0,0
1777227358053000,1777227358053000,1777227106893000,47.397742099999995,8.5455942,103.08317,-0.03977724,0.08270264,-0.0019206639,-0.002875626,-488.1121,-0.009755326,-0.00768105,-0.018562691,-0.00055835204,-0.0017447465,0.0049493075,-6.0223043e-05,-0.003874253,0.04236474,-0.005378853,-0.0065224078,0.00029576273,-0.017786432,-0.0042710165,2.0448564e-05,488.1121,0.010009766,1e-04,-488.1121,0.12008298,0.11289792,0.08011207,0.0492411,inf,inf,inf,inf,inf,1,1,1,1,3,2,2,1,2,1,1,1,0,2,0,0
1777227358061000,1777227358061000,1777227106893000,47.397742099999995,8.5455942,103.083206,-0.03975104,0.082733154,-0.0019206639,-0.002875626,-488.1121,-0.009831326,-0.007496282,-0.01854446,-0.0005069912,-0.0017447465,0.0049493075,-6.0223043e-05,-0.01851648,0.016389117,-0.0059828158,-0.0065092687,0.0002958653,-0.017775264,-0.0042710165,2.0492727e-05,488.1121,0.010009766,1e-04,-488.1121,0.12048635,0.11308932,0.08041127,0.04931378,inf,inf,inf,inf,inf,1,1,1,1,3,2,2,1,2,1,1,1,0,2,0,0
1777227358069000,1777227358069000,1777227106893000,47.397742099999995,8.5455942,103.083244,-0.0397269,0.08276367,-0.0019206639,-0.002875626,-488.1121,-0.009869885,-0.0076982086,-0.018288985,-0.00022472482,-0.0017447465,0.0049493075,-6.0223043e-05,-0.013596306,-0.031765126,0.02393592,-0.0064727357,0.0002959679,-0.017740643,-0.0042710165,2.053693e-05,488.1121,0.010009766,1e-04,-488.1121,0.120892465,0.11334002,0.080711335,0.04939663,inf,inf,inf,inf,inf,1,1,1,1,3,2,2,1,2,1,1,1,0,2,0,0
1777227358077000,1777227358077000,1777227106893000,47.397742099999995,8.5455942,103.083275,-0.039705824,0.08279419,-0.0019206639,-0.002875626,-488.1121,-0.009895193,-0.007711667,-0.01829409,-0.0002092016,-0.0017447465,0.0049493075,-6.0223043e-05,-0.011706955,-0.0080265235,-0.008380971,-0.0064106984,0.00029607068,-0.017680462,-0.0042710165,2.0581181e-05,488.1121,0.010009766,1e-04,-488.1121,0.12130133,0.11359155,0.08101015,0.04947935,inf,inf,inf,inf,inf,1,1,1,1,3,2,2,1,2,1,1,1,0,2,0,0
1777227358085000,1777227358085000,1777227106893000,47.397742099999995,8.5455942,103.083305,-0.039686646,0.08282471,-0.0019206639,-0.002875626,-488.1121,-0.0096729845,-0.0077052973,-0.018473629,-0.0003741483,-0.0017447465,0.0049493075,-6.0223043e-05,0.019444402,-0.0052545313,-0.029936897,-0.0064286143,0.000295373,-0.017700182,-0.0042710165,2.0614203e-05,488.1121,0.010009766,1e-04,-488.1121,0.1217105,0.113843925,0.08130009,0.049561948,inf,inf,inf,inf,inf,1,1,1,1,3,2,2,1,2,1,1,1,0,2,0,0
1777227358093000,1777227358093000,1777227106893000,47.397742099999995,8.5455942,103.083336,-0.03966976,0.08282471,-0.0019206639,-0.002875626,-488.1121,-0.009844763,-0.007761884,-0.018487444,-0.0003791753,-0.0017447465,0.0049493075,-6.0223043e-05,-0.02957991,-0.0129495505,-0.008980277,-0.0064211776,0.00029547556,-0.01769539,-0.0042710165,2.065852e-05,488.1121,0.010009766,1e-04,-488.1121,0.12212482,0.114097126,0.08160149,0.049644418,inf,inf,inf,inf,inf,1,1,1,1,3,2,2,1,2,1,1,1,0,2,0,0
1777227358101000,1777227358101000,1777227106893000,47.397742099999995,8.5455942,103.08339,-0.039650194,0.08288574,-0.0019206639,-0.002875626,-488.1121,-0.01007308,-0.007956264,-0.018140728,3.3093384e-06,-0.0017447465,0.0049493075,-6.0223043e-05,-0.03824794,-0.030771362,0.03471784,-0.006346678,0.00029556116,-0.017623484,-0.0042710165,2.0423122e-05,488.1121,0.010009766,1e-04,-488.1121,0.119878255,0.11277175,0.07995488,0.04919841,inf,inf,inf,inf,inf,1,1,1,1,3,2,2,1,2,1,1,1,0,2,0,0
1777227358109000,1777227358109000,1777227106893000,47.397742099999995,8.5455942,103.083435,-0.039634015,0.08291626,-0.0019206639,-0.002875626,-488.1121,-0.010116156,-0.00808236,-0.017762298,0.00041201437,-0.0017447465,0.0049493075,-6.0223043e-05,-0.0148321185,-0.02204887,0.038907394,-0.006327571,0.00029566378,-0.017606972,-0.0042710165,2.046728e-05,488.1121,0.010009766,1e-04,-488.1121,0.12028019,0.112962924,0.08025388,0.049271204,inf,inf,inf,inf,inf,1,1,1,1,3,2,2,1,2,1,1,1,0,2,0,0
1777227358117000,1777227358117000,1777227106893000,47.397742099999995,8.5455942,103.08348,-0.03962063,0.08294678,-0.0019206639,-0.002875626,-488.1121,-0.010232367,-0.008283653,-0.018051574,0.00014670071,-0.0017447465,0.0049493075,-6.0223043e-05,-0.023720883,-0.03127248,-0.044288576,-0.006294686,0.0002957663,-0.01757661,-0.0042710165,2.0511461e-05,488.1121,0.010009766,1e-04,-488.1121,0.12068487,0.11321319,0.080553465,0.049354117,inf,inf,inf,inf,inf,1,1,1,1,3,2,2,1,2,1,1,1,0,2,0,0
1777227358125000,1777227358125000,1777227106893000,47.397742099999995,8.5455942,103.08353,-0.03961126,0.082977295,-0.0019206639,-0.002875626,-488.1121,-0.010158722,-0.008594768,-0.018405207,-0.00018901308,-0.0017447465,0.0049493075,-6.0223043e-05,0.0002538819,-0.04483663,-0.0520735,-0.0063417656,0.00029586887,-0.017626148,-0.0042710165,2.0555679e-05,488.1121,0.010009766,1e-04,-488.1121,0.121092305,0.113464296,0.08085384,0.049436904,inf,inf,inf,inf,inf,1,1,1,1,3,2,2,1,2,1,1,1,0,2,0,0
1777227358133000,1777227358133000,1777227106893000,47.397742099999995,8.5455942,103.083565,-0.039605003,0.082977295,-0.0019206639,-0.002875626,-488.1121,-0.010279994,-0.008652496,-0.018157473,7.089641e-05,-0.0017447465,0.0049493075,-6.0223043e-05,-0.023872146,-0.012996068,0.023349186,-0.006389979,0.00029597155,-0.01767675,-0.0042710165,2.0599939e-05,488.1121,0.010009766,1e-04,-488.1121,0.12150249,0.11371623,0.081155,0.04951956,inf,inf,inf,inf,inf,1,1,1,1,3,2,2,1,2,1,1,1,0,2,0,0
1777227358141000,1777227358141000,1777227106893000,47.397742099999995,8.5455942,103.083595,-0.03960002,0.08300781,-0.0019206639,-0.002875626,-488.1121,-0.010413283,-0.008523294,-0.017854244,0.00038082025,-0.0017447465,0.0049493075,-6.0223043e-05,-0.025137661,0.010534771,0.03053108,-0.0064180177,0.0002960742,-0.017707111,-0.0042710165,2.0644235e-05,488.1121,0.010009766,1e-04,-488.1121,0.12191544,0.113969006,0.08145513,0.049602095,inf,inf,inf,inf,inf,1,1,1,1,3,2,2,1,2,1,1,1,0,2,0,0
1777227358149000,1777227358149000,1777227106893000,47.397742099999995,8.5455942,103.08365,-0.039584074,0.08303833,-0.0019206639,-0.002875626,-488.1121,-0.010053649,-0.008769388,-0.017912714,0.00036024128,-0.0017447465,0.0049493075,-6.0223043e-05,0.035479512,-0.037502054,-0.016164498,-0.0064173616,0.00029536034,-0.017708715,-0.0042710165,2.039968e-05,488.1121,0.010009766,1e-04,-488.1121,0.11968142,0.11264875,0.07980985,0.04915798,inf,inf,inf,inf,inf,1,1,1,1,3,2,2,1,2,1,1,1,0,2,0,0
1777227358157000,1777227358157000,1777227106893000,47.397742099999995,8.5455942,103.0837,-0.039570652,0.083099365,-0.0019206639,-0.002875626,-488.1121,-0.009743941,-0.008566863,-0.018078825,0.00022549811,-0.0017447465,0.0049493075,-6.0223043e-05,0.02949064,0.018765518,-0.029338988,-0.0064047235,0.00029546279,-0.017697541,-0.0042710165,2.0443807e-05,488.1121,0.010009766,1e-04,-488.1121,0.120082036,0.1128979,0.08010801,0.04924107,inf,inf,inf,inf,inf,1,1,1,1,3,2,2,1,2,1,1,1,0,2,0,0
1777227358165000,1777227358165000,1777227106893000,47.397742099999995,8.5455942,103.08375,-0.039556205,0.08312988,-0.0019206639,-0.002875626,-488.1121,-0.009642354,-0.008201251,-0.018271,5.832239e-05,-0.0017447465,0.0049493075,-6.0223043e-05,0.0037245003,0.039336808,-0.032329462,-0.0063836253,0.00029556526,-0.017677844,-0.0042710165,2.0487969e-05,488.1121,0.010009766,1e-04,-488.1121,0.12048538,0.113089316,0.08040671,0.04931375,inf,inf,inf,inf,inf,1,1,1,1,3,2,2,1,2,1,1,1,0,2,0,0
1777227358173000,1777227358173000,1777227106893000,47.397742099999995,8.5455942,103.08379,-0.039543167,0.08312988,-0.0019206639,-0.002875626,-488.1121,-0.009747884,-0.0081426045,-0.018010253,0.00033790444,-0.0017447465,0.0049493075,-6.0223043e-05,-0.021950576,0.0014018305,0.024550127,-0.0063050655,0.00029553307,-0.017600624,-0.0042710165,2.0530086e-05,488.1121,0.010009766,1e-04,-488.1121,0.12089108,0.11334001,0.08070505,0.0493966,inf,inf,inf,inf,inf,1,1,1,1,3,2,2,1,2,1,1,1,0,2,0,0
1777227358181000,1777227358181000,1777227106893000,47.397742099999995,8.5455942,103.08383,-0.039531834,0.0831604,-0.0019206639,-0.002875626,-488.1121,-0.009818655,-0.008214636,-0.01819207,0.00016901467,-0.0017447465,0.0049493075,-6.0223043e-05,-0.017367588,-0.014767987,-0.03051292,-0.0062408615,0.00029563555,-0.01753727,-0.0042710165,2.0574316e-05,488.1121,0.010009766,1e-04,-488.1121,0.121299915,0.113591544,0.0810051,0.04947932,inf,inf,inf,inf,inf,1,1,1,1,3,2,2,1,2,1,1,1,0,2,0,0
1777227358189000,1777227358189000,1777227106893000,47.397742099999995,8.5455942,103.08388,-0.03952429,0.08319092,-0.0019206639,-0.002875626,-488.1121,-0.009371724,-0.008585939,-0.018160554,0.00020774442,-0.0017447465,0.0049493075,-6.0223043e-05,0.047577728,-0.05201423,-0.0035967676,-0.006235274,0.00029573805,-0.017532486,-0.0042710165,2.0618587e-05,488.1121,0.010009766,1e-04,-488.1121,0.12171151,0.11384391,0.081304625,0.049561914,inf,inf,inf,inf,inf,1,1,1,1,3,2,2,1,2,1,1,1,0,2,0,0
1777227358197000,1777227358197000,1777227106893000,47.397742099999995,8.5455942,103.083916,-0.03952073,0.08319092,-0.0019206639,-0.002875626,-488.1121,-0.009000815,-0.008821478,-0.018135756,0.00023420923,-0.0017447465,0.0049493075,-6.0223043e-05,0.038293682,-0.03488681,-0.0041942107,-0.0062148194,0.0002958406,-0.01751279,-0.0042710165,2.0662894e-05,488.1121,0.010009766,1e-04,-488.1121,0.12212586,0.11409711,0.08160472,0.049644385,inf,inf,inf,inf,inf,1,1,1,1,3,2,2,1,2,1,1,1,0,2,0,0
1777227358205000,1777227358205000,1777227106893000,47.397742099999995,8.5455942,103.08397,-0.039507348,0.083221436,-0.0019206639,-0.002875626,-488.1121,-0.009057047,-0.008682876,-0.017982952,0.00042382022,-0.0017447465,0.0049493075,-6.0223043e-05,-0.015842574,0.010897003,0.010181217,-0.0062050587,0.00029592702,-0.017503746,-0.0042710165,2.0427378e-05,488.1121,0.010009766,1e-04,-488.1121,0.119879186,0.112771735,0.079957135,0.049198378,inf,inf,inf,inf,inf,1,1,1,1,3,2,2,1,2,1,1,1,0,2,0,0
1777227358213000,1777227358213000,1777227106893000,47.397742099999995,8.5455942,103.08401,-0.039493248,0.08328247,-0.0019206639,-0.002875626,-488.1121,-0.009230891,-0.008322987,-0.018085385,0.0003554821,-0.0017447465,0.0049493075,-6.0223043e-05,-0.030301986,0.03873088,-0.021536833,-0.0062037986,0.00029602964,-0.017503234,-0.0042710165,2.0471525e-05,488.1121,0.010009766,1e-04,-488.1121,0.120281145,0.11296291,0.08025636,0.04927117,inf,inf,inf,inf,inf,1,1,1,1,3,2,2,1,2,1,1,1,0,2,0,0
1777227358221000,1777227358221000,1777227106893000,47.397742099999995,8.5455942,103.08405,-0.0394805,0.08331299,-0.0019206639,-0.002875626,-488.1121,-0.008996572,-0.008420365,-0.018525328,-5.602435e-05,-0.0017447465,0.0049493075,-6.0223043e-05,0.02084859,-0.018186659,-0.063448675,-0.0061919247,0.00029533237,-0.017492065,-0.0042710165,2.0504598e-05,488.1121,0.010009766,1e-04,-488.1121,0.12068352,0.113213174,0.080545895,0.049354084,inf,inf,inf,inf,inf,1,1,1,1,3,2,2,1,2,1,1,1,0,2,0,0
1777227358229000,1777227358229000,1777227106893000,47.397742099999995,8.5455942,103.0841,-0.03947007,0.083343506,-0.0019206639,-0.002875626,-488.1121,-0.008810006,-0.008396137,-0.018656172,-0.00016391533,-0.0017447465,0.0049493075,-6.0223043e-05,0.015109266,-0.002815,-0.02454221,-0.006181599,0.0002954348,-0.017483018,-0.0042710165,2.054881e-05,488.1121,0.010009766,1e-04,-488.1121,0.12109091,0.11346428,0.08084566,0.049436875,inf,inf,inf,inf,inf,1,1,1,1,3,2,2,1,2,1,1,1,0,2,0,0
1777227358237000,1777227358237000,1777227106893000,47.397742099999995,8.5455942,103.08414,-0.039460756,0.08337402,-0.0019206639,-0.002875626,-488.1121,-0.008622197,-0.00826437,-0.018439543,7.040595e-05,-0.0017447465,0.0049493075,-6.0223043e-05,0.015491388,0.010792517,0.019153113,-0.0061766384,0.00029553723,-0.017479297,-0.0042710165,2.059306e-05,488.1121,0.010009766,1e-04,-488.1121,0.12150106,0.11371622,0.081146255,0.04951953,inf,inf,inf,inf,inf,1,1,1,1,3,2,2,1,2,1,1,1,0,2,0,0
1777227358245000,1777227358245000,1777227106893000,47.397742099999995,8.5455942,103.084175,-0.039450526,0.08337402,-0.0019206639,-0.002875626,-488.1121,-0.008377818,-0.007797997,-0.018368656,0.00015296327,-0.0017447465,0.0049493075,-6.0223043e-05,0.02277929,0.052778725,0.0011888332,-0.0061983457,0.00029563968,-0.017502207,-0.0042710165,2.063734e-05,488.1121,0.010009766,1e-04,-488.1121,0.12191397,0.11396899,0.08144654,0.049602065,inf,inf,inf,inf,inf,1,1,1,1,3,2,2,1,2,1,1,1,0,2,0,0
1777227358253000,1777227358253000,1777227106893000,47.397742099999995,8.5455942,103.084236,-0.039427634,0.08343506,-0.0019206639,-0.002875626,-488.1121,-0.008522756,-0.00776426,-0.018467976,9.5937576e-05,-0.0017447465,0.0049493075,-6.0223043e-05,-0.027239528,-0.002316943,-0.021533107,-0.0061849584,0.00029572597,-0.017489964,-0.0042710165,2.0404026e-05,488.1121,0.010009766,1e-04,-488.1121,0.11968235,0.11264873,0.07981011,0.04915795,inf,inf,inf,inf,inf,1,1,1,1,3,2,2,1,2,1,1,1,0,2,0,0
1777227358261000,1777227358261000,1777227106893000,47.397742099999995,8.5455942,103.08428,-0.03940676,0.083496094,-0.0019206639,-0.002875626,-488.1121,-0.008485235,-0.0077883136,-0.018694106,-9.401946e-05,-0.0017447465,0.0049493075,-6.0223043e-05,-0.0041843816,-0.009360015,-0.037096437,-0.0062354626,0.00029582847,-0.017541628,-0.0042710165,2.0448151e-05,488.1121,0.010009766,1e-04,-488.1121,0.12008297,0.11289789,0.08010827,0.04924104,inf,inf,inf,inf,inf,1,1,1,1,3,2,2,1,2,1,1,1,0,2,0,0
1777227358269000,1777227358269000,1777227106893000,47.397742099999995,8.5455942,103.084335,-0.039387483,0.08352661,-0.0019206639,-0.002875626,-488.1121,-0.008139537,-0.007644332,-0.018788,-0.00015564443,-0.0017447465,0.0049493075,-6.0223043e-05,0.03458039,0.011827635,-0.020354984,-0.006216793,0.000295931,-0.017524064,-0.0042710165,2.0492313e-05,488.1121,0.010009766,1e-04,-488.1121,0.12048633,0.11308929,0.08040839,0.04931372,inf,inf,inf,inf,inf,1,1,1,1,3,2,2,1,2,1,1,1,0,2,0,0
1777227358277000,1777227358277000,1777227106893000,47.397742099999995,8.5455942,103.08439,-0.039368838,0.08355713,-0.0019206639,-0.002875626,-488.1121,-0.008229416,-0.0076000956,-0.018941365,-0.00028242997,-0.0017447465,0.0049493075,-6.0223043e-05,-0.019633813,-0.00046847432,-0.027514992,-0.0061821947,0.00029603357,-0.017490517,-0.0042710165,2.0536514e-05,488.1121,0.010009766,1e-04,-488.1121,0.12089243,0.11333999,0.080709025,0.04939657,inf,inf,inf,inf,inf,1,1,1,1,3,2,2,1,2,1,1,1,0,2,0,0
1777227358285000,1777227358285000,1777227106893000,47.397742099999995,8.5455942,103.084435,-0.03935447,0.08358765,-0.0019206639,-0.002875626,-488.1121,-0.008408653,-0.0079348255,-0.019111142,-0.0004310988,-0.0017447465,0.0049493075,-6.0223043e-05,-0.030670466,-0.04743389,-0.029300803,-0.006176412,0.00029533677,-0.017485732,-0.0042710165,2.0569569e-05,488.1121,0.010009766,1e-04,-488.1121,0.12129889,0.11359152,0.080998816,0.04947929,inf,inf,inf,inf,inf,1,1,1,1,3,2,2,1,2,1,1,1,0,2,0,0
1777227358293000,1777227358293000,1777227106893000,47.397742099999995,8.5455942,103.08448,-0.03934318,0.08358765,-0.0019206639,-0.002875626,-488.1121,-0.008286074,-0.007886532,-0.019192165,-0.000496356,-0.0017447465,0.0049493075,-6.0223043e-05,0.007280016,0.00060262706,-0.017948447,-0.006178355,0.00029543918,-0.017490521,-0.0042710165,2.0613836e-05,488.1121,0.010009766,1e-04,-488.1121,0.12171045,0.113843895,0.08129815,0.049561884,inf,inf,inf,inf,inf,1,1,1,1,3,2,2,1,2,1,1,1,0,2,0,0
1777227358301000,1777227358301000,1777227106893000,47.397742099999995,8.5455942,103.084526,-0.039334096,0.083618164,-0.0019206639,-0.002875626,-488.1121,-0.007944046,-0.0081195505,-0.019136377,-0.00042997807,-0.0017447465,0.0049493075,-6.0223043e-05,0.03492724,-0.034407053,-0.00059651205,-0.0062037883,0.00029554163,-0.017518751,-0.0042710165,2.065814e-05,488.1121,0.010009766,1e-04,-488.1121,0.12212477,0.114097096,0.08159892,0.04964435,inf,inf,inf,inf,inf,1,1,1,1,3,2,2,1,2,1,1,1,0,2,0,0
1777227358309000,1777227358309000,1777227106893000,47.397742099999995,8.5455942,103.08457,-0.03931454,0.08364868,-0.0019206639,-0.002875626,-488.1121,-0.00771478,-0.008020938,-0.019071072,-0.00033058377,-0.0017447465,0.0049493075,-6.0223043e-05,0.020057524,0.005923442,-0.000599306,-0.006152568,0.00029562763,-0.017470278,-0.0042710165,2.042279e-05,488.1121,0.010009766,1e-04,-488.1121,0.11987824,0.11277172,0.079952225,0.049198348,inf,inf,inf,inf,inf,1,1,1,1,3,2,2,1,2,1,1,1,0,2,0,0
1777227358317000,1777227358317000,1777227106893000,47.397742099999995,8.5455942,103.084625,-0.039294153,0.0836792,-0.0019206639,-0.002875626,-488.1121,-0.007582005,-0.007586657,-0.019290164,-0.00052038184,-0.0017447465,0.0049493075,-6.0223043e-05,0.008227615,0.04806482,-0.03591133,-0.0061556157,0.0002957301,-0.017476132,-0.0042710165,2.0466934e-05,488.1121,0.010009766,1e-04,-488.1121,0.12028016,0.112962894,0.08025203,0.049271137,inf,inf,inf,inf,inf,1,1,1,1,3,2,2,1,2,1,1,1,0,2,0,0
1777227358325000,1777227358325000,1777227106893000,47.397742099999995,8.5455942,103.08467,-0.03927472,0.08370972,-0.0019206639,-0.002875626,-488.1121,-0.0074396348,-0.0077305497,-0.019573605,-0.0007801666,-0.0017447465,0.0049493075,-6.0223043e-05,0.009651578,-0.02403177,-0.04368368,-0.006202361,0.00029583267,-0.017525658,-0.0042710165,2.0511117e-05,488.1121,0.010009766,1e-04,-488.1121,0.12068484,0.11321317,0.08055086,0.04935405,inf,inf,inf,inf,inf,1,1,1,1,3,2,2,1,2,1,1,1,0,2,0,0
1777227358333000,1777227358333000,1777227106893000,47.397742099999995,8.5455942,103.08472,-0.039258473,0.083740234,-0.0019206639,-0.002875626,-488.1121,-0.007448272,-0.007948142,-0.019313212,-0.0005015636,-0.0017447465,0.0049493075,-6.0223043e-05,-0.009008849,-0.033069976,0.024558509,-0.006153252,0.0002959353,-0.017479308,-0.0042710165,2.0555339e-05,488.1121,0.010009766,1e-04,-488.1121,0.12109226,0.113464266,0.080851115,0.049436837,inf,inf,inf,inf,inf,1,1,1,1,3,2,2,1,2,1,1,1,0,2,0,0
1777227358341000,1777227358341000,1777227106893000,47.397742099999995,8.5455942,103.08476,-0.03924621,0.083740234,-0.0019206639,-0.002875626,-488.1121,-0.0075986264,-0.00822125,-0.019102706,-0.00027807028,-0.0017447465,0.0049493075,-6.0223043e-05,-0.026507044,-0.039843813,0.018578487,-0.006152096,0.000296038,-0.017480899,-0.0042710165,2.0599604e-05,488.1121,0.010009766,1e-04,-488.1121,0.12150244,0.11371621,0.08115131,0.0495195,inf,inf,inf,inf,inf,1,1,1,1,3,2,2,1,2,1,1,1,0,2,0,0
1777227358349000,1777227358349000,1777227106893000,47.397742099999995,8.5455942,103.08481,-0.03923773,0.08377075,-0.0019206639,-0.002875626,-488.1121,-0.007297488,-0.008407376,-0.019061927,-0.00022934389,-0.0017447465,0.0049493075,-6.0223043e-05,0.030139925,-0.028802656,-0.0023893078,-0.006098752,0.00029614067,-0.01743029,-0.0042710165,2.06439e-05,488.1121,0.010009766,1e-04,-488.1121,0.12191538,0.11396898,0.08145177,0.049602035,inf,inf,inf,inf,inf,1,1,1,1,3,2,2,1,2,1,1,1,0,2,0,0
1777227358357000,1777227358357000,1777227106893000,47.397742099999995,8.5455942,103.084854,-0.039218534,0.08380127,-0.0019206639,-0.002875626,-488.1121,-0.0070210197,-0.008408669,-0.018982561,-0.00011744583,-0.0017447465,0.0049493075,-6.0223043e-05,0.026289165,-0.0067305183,0.0011995434,-0.0060720434,0.000295427,-0.017406313,-0.0042710165,2.0399431e-05,488.1121,0.010009766,1e-04,-488.1121,0.119681396,0.112648726,0.07980649,0.04915792,inf,inf,inf,inf,inf,1,1,1,1,3,2,2,1,2,1,1,1,0,2,0,0
1777227358365000,1777227358365000,1777227106893000,47.397742099999995,8.5455942,103.0849,-0.039201662,0.08383179,-0.0019206639,-0.002875626,-488.1121,-0.0069973157,-0.00839575,-0.018756846,0.00013498712,-0.0017447465,0.0049493075,-6.0223043e-05,-0.005086399,-0.004765049,0.019770114,-0.006075451,0.00029552943,-0.017413223,-0.0042710165,2.044356e-05,488.1121,0.010009766,1e-04,-488.1121,0.120082,0.11289788,0.08010581,0.04924101,inf,inf,inf,inf,inf,1,1,1,1,3,2,2,1,2,1,1,1,0,2,0,0
1777227358373000,1777227358373000,1777227106893000,47.397742099999995,8.5455942,103.08495,-0.039185576,0.083862305,-0.0019206639,-0.002875626,-488.1121,-0.006516131,-0.008494976,-0.01881106,0.00010294712,-0.0017447465,0.0049493075,-6.0223043e-05,0.05219647,-0.018832603,-0.014970544,-0.0060490393,0.00029549742,-0.017390307,-0.0042710165,2.0485644e-05,488.1121,0.010009766,1e-04,-488.1121,0.12048496,0.113089286,0.080404766,0.04931369,inf,inf,inf,inf,inf,1,1,1,1,3,2,2,1,2,1,1,1,0,2,0,0
1777227358381000,1777227358381000,1777227106893000,47.397742099999995,8.5455942,103.085,-0.039174277,0.08389282,-0.0019206639,-0.002875626,-488.1121,-0.006297945,-0.008988677,-0.018896017,3.389432e-05,-0.0017447465,0.0049493075,-6.0223043e-05,0.01953831,-0.06795578,-0.018551944,-0.006104773,0.00029559972,-0.01744838,-0.0042710165,2.052983e-05,488.1121,0.010009766,1e-04,-488.1121,0.120891035,0.11333998,0.08070484,0.04939654,inf,inf,inf,inf,inf,1,1,1,1,3,2,2,1,2,1,1,1,0,2,0,0
1777227358389000,1777227358389000,1777227106893000,47.397742099999995,8.5455942,103.085045,-0.03916728,0.08389282,-0.0019206639,-0.002875626,-488.1121,-0.0063489215,-0.009174821,-0.01884403,9.573507e-05,-0.0017447465,0.0049493075,-6.0223043e-05,-0.013894032,-0.029330479,-0.0011799856,-0.006134957,0.00029570216,-0.017480882,-0.0042710165,2.057406e-05,488.1121,0.010009766,1e-04,-488.1121,0.12129987,0.113591515,0.0810043,0.04947926,inf,inf,inf,inf,inf,1,1,1,1,3,2,2,1,2,1,1,1,0,2,0,0
1777227358397000,1777227358397000,1777227106893000,47.397742099999995,8.5455942,103.08509,-0.03916395,0.08392334,-0.0019206639,-0.002875626,-488.1121,-0.0064245737,-0.009377789,-0.019105274,-0.0001615195,-0.0017447465,0.0049493075,-6.0223043e-05,-0.016771998,-0.031265993,-0.04008738,-0.006177944,0.00029580467,-0.017526165,-0.0042710165,2.0618329e-05,488.1121,0.010009766,1e-04,-488.1121,0.121711455,0.11384389,0.08130444,0.049561854,inf,inf,inf,inf,inf,1,1,1,1,3,2,2,1,2,1,1,1,0,2,0,0
1777227358405000,1777227358405000,1777227106893000,47.397742099999995,8.5455942,103.08514,-0.039162356,0.08392334,-0.0019206639,-0.002875626,-488.1121,-0.006402761,-0.009231176,-0.019143356,-0.00020125293,-0.0017447465,0.0049493075,-6.0223043e-05,-0.0043903952,0.012599049,-0.011952593,-0.006161299,0.00029590714,-0.017511792,-0.0042710165,2.0662628e-05,488.1121,0.010009766,1e-04,-488.1121,0.122125804,0.11409709,0.08160516,0.049644325,inf,inf,inf,inf,inf,1,1,1,1,3,2,2,1,2,1,1,1,0,2,0,0
1777227358413000,1777227358413000,1777227106893000,47.397742099999995,8.5455942,103.08518,-0.03914391,0.08395386,-0.0019206639,-0.002875626,-488.1121,-0.0063443384,-0.009535071,-0.019266983,-0.00030144572,-0.0017447465,0.0049493075,-6.0223043e-05,-0.00047399712,-0.045062754,-0.023933126,-0.006171298,0.0002959932,-0.01752405,-0.0042710165,2.0427102e-05,488.1121,0.010009766,1e-04,-488.1121,0.11987912,0.11277171,0.07995818,0.049198322,inf,inf,inf,inf,inf,1,1,1,1,3,2,2,1,2,1,1,1,0,2,0,0
1777227358421000,1777227358421000,1777227106893000,47.397742099999995,8.5455942,103.08523,-0.039132364,0.083984375,-0.0019206639,-0.002875626,-488.1121,-0.0063226414,-0.009609935,-0.019057518,-7.484516e-05,-0.0017447465,0.0049493075,-6.0223043e-05,-0.004304556,-0.015694704,0.01797592,-0.006198254,0.00029529678,-0.017553343,-0.0042710165,2.0460204e-05,488.1121,0.010009766,1e-04,-488.1121,0.12027882,0.11296289,0.08024862,0.049271114,inf,inf,inf,inf,inf,1,1,1,1,3,2,2,1,2,1,1,1,0,2,0,0
1777227358429000,1777227358429000,1777227106893000,47.397742099999995,8.5455942,103.085266,-0.03912135,0.083984375,-0.0019206639,-0.002875626,-488.1121,-0.006564756,-0.009278187,-0.018830843,0.00016293058,-0.0017447465,0.0049493075,-6.0223043e-05,-0.037088428,0.035311326,0.020388978,-0.0061754254,0.00029539905,-0.017536808,-0.0042710165,2.0504373e-05,488.1121,0.010009766,1e-04,-488.1121,0.12068348,0.11321315,0.08054847,0.049354028,inf,inf,inf,inf,inf,1,1,1,1,3,2,2,1,2,1,1,1,0,2,0,0
1777227358437000,1777227358437000,1777227106893000,47.397742099999995,8.5455942,103.085304,-0.039110452,0.08401489,-0.0019206639,-0.002875626,-488.1121,-0.006491958,-0.009109321,-0.018749993,0.0002491132,-0.0017447465,0.0049493075,-6.0223043e-05,0.0024627834,0.0151281,0.0024153849,-0.006186701,0.00029550144,-0.017554363,-0.0042710165,2.0548583e-05,488.1121,0.010009766,1e-04,-488.1121,0.121090874,0.11346426,0.08084862,0.049436815,inf,inf,inf,inf,inf,1,1,1,1,3,2,2,1,2,1,1,1,0,2,0,0
1777227358445000,1777227358445000,1777227106893000,47.397742099999995,8.5455942,103.085335,-0.039100163,0.08401489,-0.0019206639,-0.002875626,-488.1121,-0.006517078,-0.009016901,-0.018819543,0.000179375,-0.0017447465,0.0049493075,-6.0223043e-05,-0.009594042,0.0057421243,-0.01613749,-0.006196929,0.0002956038,-0.017570855,-0.0042710165,2.0592826e-05,488.1121,0.010009766,1e-04,-488.1121,0.12150103,0.11371619,0.08114893,0.04951947,inf,inf,inf,inf,inf,1,1,1,1,3,2,2,1,2,1,1,1,0,2,0,0
1777227358453000,1777227358453000,1777227106893000,47.397742099999995,8.5455942,103.08537,-0.03909198,0.08401489,-0.0019206639,-0.002875626,-488.1121,-0.006340771,-0.009039593,-0.018718705,0.00027471274,-0.0017447465,0.0049493075,-6.0223043e-05,0.015759705,-0.0084836455,0.005400739,-0.0061188033,0.00029570624,-0.017498933,-0.0042710165,2.0637111e-05,488.1121,0.010009766,1e-04,-488.1121,0.12191394,0.11396897,0.08144926,0.049602006,inf,inf,inf,inf,inf,1,1,1,1,3,2,2,1,2,1,1,1,0,2,0,0
1777227358461000,1777227358461000,1777227106893000,47.397742099999995,8.5455942,103.0854,-0.039080046,0.08404541,-0.0019206639,-0.002875626,-488.1121,-0.0063016494,-0.008864155,-0.01881549,0.00018975919,-0.0017447465,0.0049493075,-6.0223043e-05,-0.0014749356,0.01564605,-0.020329373,-0.006144066,0.000295792,-0.017530337,-0.0042710165,2.0403748e-05,488.1121,0.010009766,1e-04,-488.1121,0.11968228,0.11264872,0.07981357,0.049157895,inf,inf,inf,inf,inf,1,1,1,1,3,2,2,1,2,1,1,1,0,2,0,0
1777227358469000,1777227358469000,1777227106893000,47.397742099999995,8.5455942,103.08543,-0.039067376,0.08404541,-0.0019206639,-0.002875626,-488.1121,-0.0062919897,-0.008499022,-0.018823344,0.00018796744,-0.0017447465,0.0049493075,-6.0223043e-05,-0.004981916,0.039545305,-0.008950475,-0.0061182003,0.00029589448,-0.017510606,-0.0042710165,2.0447871e-05,488.1121,0.010009766,1e-04,-488.1121,0.120082915,0.11289786,0.08011335,0.049240984,inf,inf,inf,inf,inf,1,1,1,1,3,2,2,1,2,1,1,1,0,2,0,0
1777227358477000,1777227358477000,1777227106893000,47.397742099999995,8.5455942,103.08545,-0.03905486,0.08407593,-0.0019206639,-0.002875626,-488.1121,-0.0063782325,-0.008373299,-0.018618004,0.00039288262,-0.0017447465,0.0049493075,-6.0223043e-05,-0.016797986,0.00979602,0.017983837,-0.0060678967,0.000295997,-0.017466374,-0.0042710165,2.0492032e-05,488.1121,0.010009766,1e-04,-488.1121,0.12048629,0.11308927,0.08041358,0.049313664,inf,inf,inf,inf,inf,1,1,1,1,3,2,2,1,2,1,1,1,0,2,0,0
1777227358485000,1777227358485000,1777227106893000,47.397742099999995,8.5455942,103.08548,-0.039043006,0.08407593,-0.0019206639,-0.002875626,-488.1121,-0.0061588967,-0.008154436,-0.018591888,0.00041333196,-0.0017447465,0.0049493075,-6.0223043e-05,0.02157142,0.021614125,-0.0041723247,-0.006013393,0.00029609955,-0.017417882,-0.0042710165,2.053623e-05,488.1121,0.010009766,1e-04,-488.1121,0.12089241,0.11333997,0.08071262,0.049396515,inf,inf,inf,inf,inf,1,1,1,1,3,2,2,1,2,1,1,1,0,2,0,0
1777227358493000,1777227358493000,1777227106893000,47.397742099999995,8.5455942,103.0855,-0.039031398,0.08407593,-0.0019206639,-0.002875626,-488.1121,-0.006002228,-0.00798288,-0.018404864,0.0005895864,-0.0017447465,0.0049493075,-6.0223043e-05,0.013905062,0.015927104,0.016180797,-0.006035654,0.000295403,-0.017446093,-0.0042710165,2.0569303e-05,488.1121,0.010009766,1e-04,-488.1121,0.12129888,0.1135915,0.08100252,0.04947924,inf,inf,inf,inf,inf,1,1,1,1,3,2,2,1,2,1,1,1,0,2,0,0
1777227358501000,1777227358501000,1777227106893000,47.397742099999995,8.5455942,103.085526,-0.039021038,0.08407593,-0.0019206639,-0.002875626,-488.1121,-0.006025577,-0.00799052,-0.018080795,0.0008979448,-0.0017447465,0.0049493075,-6.0223043e-05,-0.008436823,-0.0063067623,0.033543907,-0.006057489,0.0002955054,-0.017474297,-0.0042710165,2.061357e-05,488.1121,0.010009766,1e-04,-488.1121,0.12171045,0.113843866,0.081302725,0.049561836,inf,inf,inf,inf,inf,1,1,1,1,3,2,2,1,2,1,1,1,0,2,0,0
1777227358509000,1777227358509000,1777227106893000,47.397742099999995,8.5455942,103.08555,-0.039012693,0.08407593,-0.0019206639,-0.002875626,-488.1121,-0.0059284284,-0.0080508515,-0.018060273,0.00089799473,-0.0017447465,0.0049493075,-6.0223043e-05,0.0067743515,-0.012733251,-0.004173256,-0.0060325107,0.0002956078,-0.017455623,-0.0042710165,2.0657875e-05,488.1121,0.010009766,1e-04,-488.1121,0.12212479,0.11409707,0.081603125,0.049644303,inf,inf,inf,inf,inf,1,1,1,1,3,2,2,1,2,1,1,1,0,2,0,0
