timestamp,timestamp_sample,ref_timestamp,ref_lat,ref_lon,x,y,z,delta_xy[0],delta_xy[1],delta_z,vx,vy,vz,z_deriv,delta_vxy[0],delta_vxy[1],delta_vz,ax,ay,az,heading,heading_var,unaided_heading,delta_heading,tilt_var,ref_alt,dist_bottom,dist_bottom_var,delta_dist_bottom,eph,epv,evh,evv,vxy_max,vz_max,hagl_min,hagl_max_z,hagl_max_xy,xy_valid,z_valid,v_xy_valid,v_z_valid,xy_reset_counter,z_reset_counter,vxy_reset_counter,vz_reset_counter,heading_reset_counter,heading_good_for_control,xy_global,z_global,dist_bottom_valid,dist_bottom_reset_counter,dist_bottom_sensor_bitfield,dead_reckoning
1777225992369000,1777225992369000,1777225652689000,47.397742,8.5455943,0.00885418,-0.044740845,-0.030914307,-0.0005730107,0.0002314337,-487.9991,0.0036120901,-0.0006875333,-0.022279102,0.0034433622,-2.551949e-05,-1.4980818e-05,4.813075e-06,0.017687736,-0.018193722,-0.024494713,0.018800788,0.0003139391,0.008861728,0.0050611896,1.9027393e-05,487.9991,0.010009766,1e-04,-487.9991,0.120683044,0.11322237,0.08054281,0.049347468,inf,inf,inf,inf,inf,1,1,1,1,3,2,2,1,2,1,1,1,0,2,0,0
1777225992377000,1777225992377000,1777225652689000,47.397742,8.5455943,0.008823335,-0.04475174,-0.030914307,-0.0005730107,0.0002314337,-487.9991,0.0036371415,-0.0005465985,-0.022482488,0.0032028917,-2.551949e-05,-1.4980818e-05,4.813075e-06,0.0077597955,0.017693127,-0.033860557,0.018824354,0.00031403836,0.008891521,0.0050611896,1.9071507e-05,487.9991,0.010009766,1e-04,-487.9991,0.12109042,0.11347343,0.080842614,0.0494302,inf,inf,inf,inf,inf,1,1,1,1,3,2,2,1,2,1,1,1,0,2,0,0
1777225992385000,1777225992385000,1777225652689000,47.397742,8.5455943,0.008795062,-0.044761837,-0.030944824,-0.0005730107,0.0002314337,-487.9991,0.00396034,-0.00058209366,-0.02268912,0.0029538607,-2.551949e-05,-1.4980818e-05,4.813075e-06,0.04489862,-0.0043637827,-0.033987217,0.01879438,0.00031413767,0.008867614,0.0050611896,1.911566e-05,487.9991,0.010009766,1e-04,-487.9991,0.121500544,0.11372533,0.0811431,0.049512804,inf,inf,inf,inf,inf,1,1,1,1,3,2,2,1,2,1,1,1,0,2,0,0
1777225992393000,1777225992393000,1777225652689000,47.397742,8.5455943,0.008770293,-0.04477115,-0.030944824,-0.0005730107,0.0002314337,-487.9991,0.0040520295,-0.00037895152,-0.022743292,0.0028522098,-2.551949e-05,-1.4980818e-05,4.813075e-06,0.015832955,0.025464708,-0.014658551,0.018758433,0.00031423708,0.008837579,0.0050611896,1.9159852e-05,487.9991,0.010009766,1e-04,-487.9991,0.12191343,0.113978066,0.081443354,0.04959528,inf,inf,inf,inf,inf,1,1,1,1,3,2,2,1,2,1,1,1,0,2,0,0
1777225992401000,1777225992401000,1777225652689000,47.397742,8.5455943,0.00874943,-0.04478004,-0.030944824,-0.0005730107,0.0002314337,-487.9991,0.004149342,-0.0004550374,-0.022923013,0.002648641,-2.551949e-05,-1.4980818e-05,4.813075e-06,0.016426113,-0.0094224885,-0.031624917,0.018746147,0.00031349284,0.008831045,0.0050611896,1.8916337e-05,487.9991,0.010009766,1e-04,-487.9991,0.119679734,0.11259971,0.07979871,0.049141154,inf,inf,inf,inf,inf,1,1,1,1,3,2,2,1,2,1,1,1,0,2,0,0
1777225992409000,1777225992409000,1777225652689000,47.397742,8.5455943,0.008730341,-0.044789232,-0.030944824,-0.0005730107,0.0002314337,-487.9991,0.0041563907,-0.00043358965,-0.023181172,0.0023608322,-2.551949e-05,-1.4980818e-05,4.813075e-06,0.005025903,0.0027592739,-0.04112953,0.018711438,0.00031359197,0.008801881,0.0050611896,1.896036e-05,487.9991,0.010009766,1e-04,-487.9991,0.120080285,0.11284869,0.08009789,0.04922421,inf,inf,inf,inf,inf,1,1,1,1,3,2,2,1,2,1,1,1,0,2,0,0
1777225992417000,1777225992417000,1777225652689000,47.397742,8.5455943,0.008712268,-0.044797562,-0.030944824,-0.0005730107,0.0002314337,-487.9991,0.003958574,-0.0003659692,-0.022986522,0.002520296,-2.551949e-05,-1.4980818e-05,4.813075e-06,-0.020693582,0.008528377,0.015763098,0.018699503,0.0003136913,0.008795328,0.0050611896,1.9004428e-05,487.9991,0.010009766,1e-04,-487.9991,0.12048358,0.11309851,0.08039804,0.049307134,inf,inf,inf,inf,inf,1,1,1,1,3,2,2,1,2,1,1,1,0,2,0,0
1777225992425000,1777225992425000,1777225652689000,47.397742,8.5455943,0.008693383,-0.044805244,-0.030944824,-0.0005730107,0.0002314337,-487.9991,0.0037463906,-0.0002792076,-0.022956826,0.00250954,-2.551949e-05,-1.4980818e-05,4.813075e-06,-0.022601759,0.010912128,-0.004573259,0.018738823,0.0003137905,0.008839879,0.0050611896,1.9048526e-05,487.9991,0.010009766,1e-04,-487.9991,0.12088962,0.11334917,0.08069795,0.04938993,inf,inf,inf,inf,inf,1,1,1,1,3,2,2,1,2,1,1,1,0,2,0,0
1777225992433000,1777225992433000,1777225652689000,47.397742,8.5455943,0.008674938,-0.044811547,-0.030975342,-0.0005730107,0.0002314337,-487.9991,0.0037015085,-0.00014558726,-0.02312534,0.0022956072,-2.551949e-05,-1.4980818e-05,4.813075e-06,-0.0017987039,0.016759582,-0.029074958,0.018719783,0.00031388973,0.008825906,0.0050611896,1.9092658e-05,487.9991,0.010009766,1e-04,-487.9991,0.12129841,0.113600664,0.08099923,0.049472593,inf,inf,inf,inf,inf,1,1,1,1,3,2,2,1,2,1,1,1,0,2,0,0
1777225992441000,1777225992441000,1777225652689000,47.397742,8.5455943,0.008658114,-0.04481792,-0.03100586,-0.0005730107,0.0002314337,-487.9991,0.003770665,-0.00036278463,-0.02317353,0.0021963657,-2.551949e-05,-1.4980818e-05,4.813075e-06,0.012347905,-0.02710051,-0.013767741,0.018676717,0.000313989,0.00878774,0.0050611896,1.913683e-05,487.9991,0.010009766,1e-04,-487.9991,0.121709965,0.11385299,0.08130029,0.049555138,inf,inf,inf,inf,inf,1,1,1,1,3,2,2,1,2,1,1,1,0,2,0,0
1777225992449000,1777225992449000,1777225652689000,47.397742,8.5455943,0.0086426195,-0.044826686,-0.031036377,-0.0005730107,0.0002314337,-487.9991,0.003777932,-0.0007077207,-0.02355456,0.0017599682,-2.551949e-05,-1.4980818e-05,4.813075e-06,0.0045066285,-0.043069616,-0.05516037,0.01862178,0.00031408836,0.008737545,0.0050611896,1.9181043e-05,487.9991,0.010009766,1e-04,-487.9991,0.122124285,0.114046074,0.08160181,0.049626898,inf,inf,inf,inf,inf,1,1,1,1,3,2,2,1,2,1,1,1,0,2,0,0
1777225992457000,1777225992457000,1777225652689000,47.397742,8.5455943,0.008618639,-0.044843595,-0.031036377,-0.0005730107,0.0002314337,-487.9991,0.0039015408,-0.0007647686,-0.023683678,0.0015999414,-2.551949e-05,-1.4980818e-05,4.813075e-06,0.019764327,-0.0067488486,-0.02501346,0.018646654,0.0003141689,0.008766996,0.0050611896,1.8946055e-05,487.9991,0.010009766,1e-04,-487.9991,0.11987776,0.11272275,0.07995496,0.049181607,inf,inf,inf,inf,inf,1,1,1,1,3,2,2,1,2,1,1,1,0,2,0,0
1777225992465000,1777225992465000,1777225652689000,47.397742,8.5455943,0.008596008,-0.044862088,-0.031036377,-0.0005730107,0.0002314337,-487.9991,0.0038066441,-0.0012203314,-0.023621138,0.0016255272,-2.551949e-05,-1.4980818e-05,4.813075e-06,-0.0076760384,-0.05657824,-0.0007646158,0.018701857,0.00031426834,0.0088266395,0.0050611896,1.8990107e-05,487.9991,0.010009766,1e-04,-487.9991,0.1202797,0.11297214,0.08025317,0.049264595,inf,inf,inf,inf,inf,1,1,1,1,3,2,2,1,2,1,1,1,0,2,0,0
1777225992473000,1777225992473000,1777225652689000,47.397742,8.5455943,0.008575828,-0.044884447,-0.031066895,-0.0005730107,0.0002314337,-487.9991,0.0038109764,-0.0017120353,-0.023139676,0.0020641573,-2.551949e-05,-1.4980818e-05,4.813075e-06,0.0043648076,-0.061139535,0.05188351,0.018763471,0.00031354223,0.008892529,0.0050611896,1.902341e-05,487.9991,0.010009766,1e-04,-487.9991,0.12068208,0.11322237,0.0805432,0.049347457,inf,inf,inf,inf,inf,1,1,1,1,3,2,2,1,2,1,1,1,0,2,0,0
1777225992481000,1777225992481000,1777225652689000,47.397742,8.5455943,0.008556299,-0.04490819,-0.031097412,-0.0005730107,0.0002314337,-487.9991,0.0036552704,-0.0018299816,-0.023161063,0.0019942971,-2.551949e-05,-1.4980818e-05,4.813075e-06,-0.015749741,-0.014431785,-0.010697636,0.018775586,0.00031364145,0.008908842,0.0050611896,1.9067527e-05,487.9991,0.010009766,1e-04,-487.9991,0.12108945,0.11347343,0.08084328,0.049430188,inf,inf,inf,inf,inf,1,1,1,1,3,2,2,1,2,1,1,1,0,2,0,0
1777225992489000,1777225992489000,1777225652689000,47.397742,8.5455943,0.00853761,-0.04493293,-0.03112793,-0.0005730107,0.0002314337,-487.9991,0.0036871773,-0.001938426,-0.02299294,0.002108563,-2.551949e-05,-1.4980818e-05,4.813075e-06,0.007590538,-0.013251986,0.013257842,0.0187364,0.0003137407,0.008873703,0.0050611896,1.9111685e-05,487.9991,0.010009766,1e-04,-487.9991,0.121499576,0.11372533,0.081143625,0.049512796,inf,inf,inf,inf,inf,1,1,1,1,3,2,2,1,2,1,1,1,0,2,0,0
1777225992497000,1777225992497000,1777225652689000,47.397742,8.5455943,0.008521661,-0.044957444,-0.031158447,-0.0005730107,0.0002314337,-487.9991,0.0039758543,-0.0019571723,-0.022893395,0.0021490958,-2.551949e-05,-1.4980818e-05,4.813075e-06,0.039584357,-0.0020562054,0.0049448567,0.018719167,0.00031383988,0.008860361,0.0050611896,1.9155868e-05,487.9991,0.010009766,1e-04,-487.9991,0.12191246,0.113978066,0.08144386,0.049595274,inf,inf,inf,inf,inf,1,1,1,1,3,2,2,1,2,1,1,1,0,2,0,0
1777225992505000,1777225992505000,1777225652689000,47.397742,8.5455943,0.008497637,-0.044983536,-0.031158447,-0.0005730107,0.0002314337,-487.9991,0.004057634,-0.002245652,-0.022882972,0.0021340987,-2.551949e-05,-1.4980818e-05,4.813075e-06,0.014481813,-0.035769172,-0.007817521,0.018716514,0.00031392014,0.008861421,0.0050611896,1.8923072e-05,487.9991,0.010009766,1e-04,-487.9991,0.11968098,0.11259971,0.079808325,0.049141146,inf,inf,inf,inf,inf,1,1,1,1,3,2,2,1,2,1,1,1,0,2,0,0
1777225992513000,1777225992513000,1777225652689000,47.397742,8.5455943,0.008474705,-0.04500967,-0.031158447,-0.0005730107,0.0002314337,-487.9991,0.0037733505,-0.0020868857,-0.023528345,0.0014570918,-2.551949e-05,-1.4980818e-05,4.813075e-06,-0.03139971,0.020127034,-0.08949357,0.018714136,0.0003140195,0.0088625625,0.0050611896,1.8967105e-05,487.9991,0.010009766,1e-04,-487.9991,0.12008158,0.11284869,0.080107674,0.049224198,inf,inf,inf,inf,inf,1,1,1,1,3,2,2,1,2,1,1,1,0,2,0,0
1777225992521000,1777225992521000,1777225652689000,47.397742,8.5455943,0.008450283,-0.04503493,-0.031188965,-0.0005730107,0.0002314337,-487.9991,0.0034542305,-0.0021559766,-0.023564389,0.0013834813,-2.551949e-05,-1.4980818e-05,4.813075e-06,-0.03587889,-0.008367867,-0.013037584,0.018695842,0.0003141189,0.008847611,0.0050611896,1.9011177e-05,487.9991,0.010009766,1e-04,-487.9991,0.12048492,0.11309851,0.08040744,0.049307123,inf,inf,inf,inf,inf,1,1,1,1,3,2,2,1,2,1,1,1,0,2,0,0
1777225992529000,1777225992529000,1777225652689000,47.397742,8.5455943,0.008426001,-0.045060698,-0.031188965,-0.0005730107,0.0002314337,-487.9991,0.00339691,-0.0022113523,-0.023487678,0.0014169686,-2.551949e-05,-1.4980818e-05,4.813075e-06,-0.0032720251,-0.0066606584,0.0013383104,0.018720346,0.00031421843,0.008875271,0.0050611896,1.9055291e-05,487.9991,0.010009766,1e-04,-487.9991,0.120891005,0.11334917,0.080707654,0.049389917,inf,inf,inf,inf,inf,1,1,1,1,3,2,2,1,2,1,1,1,0,2,0,0
1777225992537000,1777225992537000,1777225652689000,47.397742,8.5455943,0.008403696,-0.04508584,-0.031219482,-0.0005730107,0.0002314337,-487.9991,0.0036454236,-0.0022036093,-0.023288317,0.0015677228,-2.551949e-05,-1.4980818e-05,4.813075e-06,0.034904324,0.0011877018,0.016942618,0.018704817,0.0003134929,0.008862721,0.0050611896,1.9088573e-05,487.9991,0.010009766,1e-04,-487.9991,0.12129747,0.113600664,0.08099892,0.04947259,inf,inf,inf,inf,inf,1,1,1,1,3,2,2,1,2,1,1,1,0,2,0,0
1777225992545000,1777225992545000,1777225652689000,47.397742,8.5455943,0.008384473,-0.045110185,-0.03125,-0.0005730107,0.0002314337,-487.9991,0.003765001,-0.002105701,-0.023468902,0.0013333994,-2.551949e-05,-1.4980818e-05,4.813075e-06,0.018613216,0.012352235,-0.030285211,0.01871888,0.0003134674,0.008879803,0.0050611896,1.9130672e-05,487.9991,0.010009766,1e-04,-487.9991,0.12170862,0.11385299,0.081297524,0.04955513,inf,inf,inf,inf,inf,1,1,1,1,3,2,2,1,2,1,1,1,0,2,0,0
1777225992553000,1777225992553000,1777225652689000,47.397742,8.5455943,0.008366532,-0.04513344,-0.031311035,-0.0005730107,0.0002314337,-487.9991,0.003534881,-0.0021463074,-0.023441747,0.0013009295,-2.551949e-05,-1.4980818e-05,4.813075e-06,-0.025206944,-0.0049619516,-0.0040349546,0.018682782,0.00031356647,0.008845834,0.0050611896,1.917487e-05,487.9991,0.010009766,1e-04,-487.9991,0.12212292,0.114046074,0.081598476,0.049626887,inf,inf,inf,inf,inf,1,1,1,1,3,2,2,1,2,1,1,1,0,2,0,0
1777225992561000,1777225992561000,1777225652689000,47.397742,8.5455943,0.008327245,-0.04516547,-0.031311035,-0.0005730107,0.0002314337,-487.9991,0.0034922725,-0.0024974726,-0.023175402,0.0015326402,-2.551949e-05,-1.4980818e-05,4.813075e-06,-0.0004531989,-0.043437004,0.024469567,0.018687872,0.00031364633,0.0088528935,0.0050611896,1.894003e-05,487.9991,0.010009766,1e-04,-487.9991,0.119876534,0.11272275,0.07995191,0.04918159,inf,inf,inf,inf,inf,1,1,1,1,3,2,2,1,2,1,1,1,0,2,0,0
1777225992569000,1777225992569000,1777225652689000,47.397742,8.5455943,0.008290549,-0.045198612,-0.031341553,-0.0005730107,0.0002314337,-487.9991,0.0037042825,-0.0025409479,-0.023053277,0.0016145993,-2.551949e-05,-1.4980818e-05,4.813075e-06,0.03123345,-0.0049903407,0.006731599,0.018673792,0.00031374552,0.008840637,0.0050611896,1.8984072e-05,487.9991,0.010009766,1e-04,-487.9991,0.120278455,0.11297214,0.08025055,0.04926458,inf,inf,inf,inf,inf,1,1,1,1,3,2,2,1,2,1,1,1,0,2,0,0
1777225992577000,1777225992577000,1777225652689000,47.397742,8.5455943,0.008256099,-0.045231577,-0.03137207,-0.0005730107,0.0002314337,-487.9991,0.003498583,-0.0025877077,-0.02280887,0.0018135007,-2.551949e-05,-1.4980818e-05,4.813075e-06,-0.021116836,-0.005415015,0.022298189,0.018669622,0.00031384476,0.008838145,0.0050611896,1.902815e-05,487.9991,0.010009766,1e-04,-487.9991,0.120683104,0.11322237,0.080549866,0.04934744,inf,inf,inf,inf,inf,1,1,1,1,3,2,2,1,2,1,1,1,0,2,0,0
1777225992585000,1777225992585000,1777225652689000,47.397742,8.5455943,0.008221912,-0.045264516,-0.03137207,-0.0005730107,0.0002314337,-487.9991,0.0034406218,-0.0026601176,-0.022571562,0.0020001947,-2.551949e-05,-1.4980818e-05,4.813075e-06,-0.0027834533,-0.0086350385,0.021683982,0.018669918,0.00031394398,0.008839961,0.0050611896,1.9072264e-05,487.9991,0.010009766,1e-04,-487.9991,0.1210905,0.11347343,0.08085005,0.049430173,inf,inf,inf,inf,inf,1,1,1,1,3,2,2,1,2,1,1,1,0,2,0,0
1777225992593000,1777225992593000,1777225652689000,47.397742,8.5455943,0.00818932,-0.045297388,-0.031402588,-0.0005730107,0.0002314337,-487.9991,0.0035076244,-0.002602571,-0.022460148,0.0020561193,-2.551949e-05,-1.4980818e-05,4.813075e-06,0.012702735,0.0075940164,0.006212387,0.018752377,0.00031404328,0.008923804,0.0050611896,1.9116418e-05,487.9991,0.010009766,1e-04,-487.9991,0.121500656,0.11372533,0.08115025,0.04951278,inf,inf,inf,inf,inf,1,1,1,1,3,2,2,1,2,1,1,1,0,2,0,0
1777225992601000,1777225992601000,1777225652689000,47.397742,8.5455943,0.008159474,-0.045329574,-0.031463623,-0.0005730107,0.0002314337,-487.9991,0.003607044,-0.002711085,-0.022696527,0.0017596292,-2.551949e-05,-1.4980818e-05,4.813075e-06,0.016628208,-0.013179714,-0.037004236,0.018777706,0.00031414276,0.008950371,0.0050611896,1.9160612e-05,487.9991,0.010009766,1e-04,-487.9991,0.121913575,0.113978066,0.081451565,0.049595263,inf,inf,inf,inf,inf,1,1,1,1,3,2,2,1,2,1,1,1,0,2,0,0
1777225992609000,1777225992609000,1777225652689000,47.397742,8.5455943,0.008131747,-0.04537033,-0.031463623,-0.0005730107,0.0002314337,-487.9991,0.003232966,-0.0030444607,-0.022896316,0.0015179256,-2.551949e-05,-1.4980818e-05,4.813075e-06,-0.042725336,-0.04092314,-0.033574175,0.018758748,0.0003133987,0.00893251,0.0050611896,1.891695e-05,487.9991,0.010009766,1e-04,-487.9991,0.11967976,0.11259971,0.079807185,0.049141135,inf,inf,inf,inf,inf,1,1,1,1,3,2,2,1,2,1,1,1,0,2,0,0
1777225992617000,1777225992617000,1777225652689000,47.397742,8.5455943,0.008105006,-0.045411993,-0.03149414,-0.0005730107,0.0002314337,-487.9991,0.0035492347,-0.0030862966,-0.023317052,0.0010502331,-2.551949e-05,-1.4980818e-05,4.813075e-06,0.04344622,-0.0045016166,-0.060909424,0.018700272,0.00031349782,0.008874031,0.0050611896,1.8960975e-05,487.9991,0.010009766,1e-04,-487.9991,0.12008034,0.11284869,0.08010604,0.049224187,inf,inf,inf,inf,inf,1,1,1,1,3,2,2,1,2,1,1,1,0,2,0,0
1777225992625000,1777225992625000,1777225652689000,47.397742,8.5455943,0.008083347,-0.045452707,-0.03152466,-0.0005730107,0.0002314337,-487.9991,0.00405706,-0.0028862501,-0.023398671,0.0009167481,-2.551949e-05,-1.4980818e-05,4.813075e-06,0.06727404,0.025717534,-0.018245073,0.018737504,0.00031359692,0.008911131,0.0050611896,1.9005032e-05,487.9991,0.010009766,1e-04,-487.9991,0.12048366,0.11309851,0.08040415,0.04930711,inf,inf,inf,inf,inf,1,1,1,1,3,2,2,1,2,1,1,1,0,2,0,0
1777225992633000,1777225992633000,1777225652689000,47.397742,8.5455943,0.008066173,-0.045490548,-0.031585693,-0.0005730107,0.0002314337,-487.9991,0.0042522904,-0.0026185361,-0.023343112,0.00091567484,-2.551949e-05,-1.4980818e-05,4.813075e-06,0.028079303,0.034154695,-0.0008307397,0.018801646,0.0003136961,0.008975023,0.0050611896,1.904913e-05,487.9991,0.010009766,1e-04,-487.9991,0.12088972,0.11334917,0.08070375,0.049389906,inf,inf,inf,inf,inf,1,1,1,1,3,2,2,1,2,1,1,1,0,2,0,0
1777225992641000,1777225992641000,1777225652689000,47.397742,8.5455943,0.008049702,-0.04552779,-0.03161621,-0.0005730107,0.0002314337,-487.9991,0.0038438763,-0.0029182448,-0.023637606,0.00055995834,-2.551949e-05,-1.4980818e-05,4.813075e-06,-0.047489062,-0.036792755,-0.044328157,0.018849483,0.00031379535,0.009022485,0.0050611896,1.909327e-05,487.9991,0.010009766,1e-04,-487.9991,0.12129854,0.113600664,0.08100323,0.049472574,inf,inf,inf,inf,inf,1,1,1,1,3,2,2,1,2,1,1,1,0,2,0,0
1777225992649000,1777225992649000,1777225652689000,47.397742,8.5455943,0.008029855,-0.04556765,-0.031677246,-0.0005730107,0.0002314337,-487.9991,0.0032361844,-0.0031736516,-0.023723153,0.00040875323,-2.551949e-05,-1.4980818e-05,4.813075e-06,-0.072500944,-0.03127508,-0.017958226,0.018933924,0.00031389462,0.009106433,0.0050611896,1.9137444e-05,487.9991,0.010009766,1e-04,-487.9991,0.121710114,0.11385299,0.08130326,0.04955512,inf,inf,inf,inf,inf,1,1,1,1,3,2,2,1,2,1,1,1,0,2,0,0
1777225992657000,1777225992657000,1777225652689000,47.397742,8.5455943,0.008007599,-0.045607835,-0.03173828,-0.0005730107,0.0002314337,-487.9991,0.0028011026,-0.0033216598,-0.02396818,9.3796756e-05,-2.551949e-05,-1.4980818e-05,4.813075e-06,-0.05103168,-0.017870443,-0.03763614,0.018952822,0.0003139938,0.009124722,0.0050611896,1.918165e-05,487.9991,0.010009766,1e-04,-487.9991,0.12212445,0.114046074,0.08160376,0.049626876,inf,inf,inf,inf,inf,1,1,1,1,3,2,2,1,2,1,1,1,0,2,0,0
1777225992665000,1777225992665000,1777225652689000,47.397742,8.5455943,0.007983694,-0.045647714,-0.0317688,-0.0005730107,0.0002314337,-487.9991,0.0025732103,-0.003686603,-0.023889743,0.0001188725,-2.551949e-05,-1.4980818e-05,4.813075e-06,-0.024958225,-0.045314267,0.0016991979,0.018987471,0.0003140742,0.009158654,0.0050611896,1.8946605e-05,487.9991,0.010009766,1e-04,-487.9991,0.11987788,0.11272275,0.07995776,0.049181584,inf,inf,inf,inf,inf,1,1,1,1,3,2,2,1,2,1,1,1,0,2,0,0
1777225992673000,1777225992673000,1777225652689000,47.397742,8.5455943,0.007960655,-0.045688402,-0.031829834,-0.0005730107,0.0002314337,-487.9991,0.0026419738,-0.0038908466,-0.02362103,0.00032969075,-2.551949e-05,-1.4980818e-05,4.813075e-06,0.012031131,-0.02539528,0.025751999,0.018979976,0.0003133492,0.009150311,0.0050611896,1.8979927e-05,487.9991,0.010009766,1e-04,-487.9991,0.12027758,0.11297214,0.08024784,0.049264573,inf,inf,inf,inf,inf,1,1,1,1,3,2,2,1,2,1,1,1,0,2,0,0
1777225992681000,1777225992681000,1777225652689000,47.397742,8.5455943,0.007939401,-0.045731574,-0.03189087,-0.0005730107,0.0002314337,-487.9991,0.0027468295,-0.004379344,-0.023945155,-5.667447e-05,-2.551949e-05,-1.4980818e-05,4.813075e-06,0.016436864,-0.06093243,-0.04809163,0.01894186,0.00031344828,0.009112481,0.0050611896,1.9024003e-05,487.9991,0.010009766,1e-04,-487.9991,0.12068222,0.11322237,0.08054707,0.049347434,inf,inf,inf,inf,inf,1,1,1,1,3,2,2,1,2,1,1,1,0,2,0,0
1777225992689000,1777225992689000,1777225652689000,47.397742,8.5455943,0.007921143,-0.045778338,-0.031921387,-0.0005730107,0.0002314337,-487.9991,0.0030823036,-0.0048392746,-0.024046252,-0.00022421381,-2.551949e-05,-1.4980818e-05,4.813075e-06,0.045157284,-0.05736255,-0.019960104,0.018934151,0.00031354744,0.009104956,0.0050611896,1.906812e-05,487.9991,0.010009766,1e-04,-487.9991,0.12108961,0.11347343,0.08084641,0.049430165,inf,inf,inf,inf,inf,1,1,1,1,3,2,2,1,2,1,1,1,0,2,0,0
1777225992697000,1777225992697000,1777225652689000,47.397742,8.5455943,0.007905805,-0.045826375,-0.03201294,-0.0005730107,0.0002314337,-487.9991,0.0031093403,-0.0047666696,-0.02420822,-0.00045664853,-2.551949e-05,-1.4980818e-05,4.813075e-06,0.006501219,0.009204266,-0.02732314,0.01890341,0.00031364657,0.009074312,0.0050611896,1.911227e-05,487.9991,0.010009766,1e-04,-487.9991,0.12149973,0.11372533,0.08114693,0.049512774,inf,inf,inf,inf,inf,1,1,1,1,3,2,2,1,2,1,1,1,0,2,0,0
1777225992705000,1777225992705000,1777225652689000,47.397742,8.5455943,0.007891942,-0.045873813,-0.032073975,-0.0005730107,0.0002314337,-487.9991,0.0032657029,-0.0048806677,-0.023875289,-0.00019801682,-2.551949e-05,-1.4980818e-05,4.813075e-06,0.022567475,-0.014126591,0.03477791,0.018858638,0.0003137458,0.009029543,0.0050611896,1.9156465e-05,487.9991,0.010009766,1e-04,-487.9991,0.121912636,0.113978066,0.08144705,0.049595255,inf,inf,inf,inf,inf,1,1,1,1,3,2,2,1,2,1,1,1,0,2,0,0
1777225992713000,1777225992713000,1777225652689000,47.397742,8.5455943,0.007880194,-0.04590652,-0.032104492,-0.0005730107,0.0002314337,-487.9991,0.0032171211,-0.0052538505,-0.023653658,-2.9806863e-05,-2.551949e-05,-1.4980818e-05,4.813075e-06,-0.0028785884,-0.047595832,0.019616911,0.018819317,0.00031382628,0.008990163,0.0050611896,1.8923616e-05,487.9991,0.010009766,1e-04,-487.9991,0.11968112,0.11259971,0.079810865,0.049141128,inf,inf,inf,inf,inf,1,1,1,1,3,2,2,1,2,1,1,1,0,2,0,0
1777225992721000,1777225992721000,1777225652689000,47.397742,8.5455943,0.007869493,-0.045941755,-0.032165527,-0.0005730107,0.0002314337,-487.9991,0.00341076,-0.0054406985,-0.023581529,-1.5631958e-05,-2.551949e-05,-1.4980818e-05,4.813075e-06,0.027306613,-0.024277586,0.001197215,0.018848436,0.0003139256,0.009019081,0.0050611896,1.896765e-05,487.9991,0.010009766,1e-04,-487.9991,0.12008172,0.11284869,0.08010977,0.049224183,inf,inf,inf,inf,inf,1,1,1,1,3,2,2,1,2,1,1,1,0,2,0,0
1777225992729000,1777225992729000,1777225652689000,47.397742,8.5455943,0.0078625735,-0.045976404,-0.032226562,-0.0005730107,0.0002314337,-487.9991,0.0038353335,-0.005086738,-0.023445994,5.7557074e-05,-2.551949e-05,-1.4980818e-05,4.813075e-06,0.05608098,0.043349057,0.009383074,0.018863749,0.00031402492,0.009034136,0.0050611896,1.9011723e-05,487.9991,0.010009766,1e-04,-487.9991,0.120485075,0.11309851,0.08040844,0.049307104,inf,inf,inf,inf,inf,1,1,1,1,3,2,2,1,2,1,1,1,0,2,0,0
1777225992737000,1777225992737000,1777225652689000,47.397742,8.5455943,0.007860336,-0.0460091,-0.032287598,-0.0005730107,0.0002314337,-487.9991,0.0042309705,-0.0050268928,-0.023821838,-0.00038490293,-2.551949e-05,-1.4980818e-05,4.813075e-06,0.0523733,0.0066044247,-0.05428679,0.018842654,0.00031412428,0.009012729,0.0050611896,1.9055831e-05,487.9991,0.010009766,1e-04,-487.9991,0.12089117,0.11334917,0.08070747,0.0493899,inf,inf,inf,inf,inf,1,1,1,1,3,2,2,1,2,1,1,1,0,2,0,0
1777225992745000,1777225992745000,1777225652689000,47.397742,8.5455943,0.007860241,-0.04604159,-0.032348633,-0.0005730107,0.0002314337,-487.9991,0.0041798037,-0.004843507,-0.023868265,-0.000502078,-2.551949e-05,-1.4980818e-05,4.813075e-06,-0.003563166,0.022169828,-0.012864358,0.018836848,0.0003132749,0.009006554,0.0050611896,1.9087056e-05,487.9991,0.010009766,1e-04,-487.9991,0.12129725,0.11360066,0.08099608,0.04947257,inf,inf,inf,inf,inf,1,1,1,1,3,2,2,1,2,1,1,1,0,2,0,0
1777225992753000,1777225992753000,1777225652689000,47.397742,8.5455943,0.007859925,-0.046073373,-0.032409668,-0.0005730107,0.0002314337,-487.9991,0.003883123,-0.0048809773,-0.02375978,-0.00046828232,-2.551949e-05,-1.4980818e-05,4.813075e-06,-0.034342036,-0.0054098326,0.0067376527,0.01886216,0.00031337395,0.009029882,0.0050611896,1.9131221e-05,487.9991,0.010009766,1e-04,-487.9991,0.12170878,0.113852985,0.08129685,0.04955511,inf,inf,inf,inf,inf,1,1,1,1,3,2,2,1,2,1,1,1,0,2,0,0
1777225992761000,1777225992761000,1777225652689000,47.397742,8.5455943,0.007858141,-0.046106607,-0.03250122,-0.0005730107,0.0002314337,-487.9991,0.0036913469,-0.0051683676,-0.024166968,-0.0009538598,-2.551949e-05,-1.4980818e-05,4.813075e-06,-0.021320745,-0.036621667,-0.05750637,0.018836368,0.00031347302,0.009002065,0.0050611896,1.9175422e-05,487.9991,0.010009766,1e-04,-487.9991,0.122123085,0.11404607,0.081597626,0.04962687,inf,inf,inf,inf,inf,1,1,1,1,3,2,2,1,2,1,1,1,0,2,0,0
1777225992769000,1777225992769000,1777225652689000,47.397742,8.5455943,0.007845182,-0.046132576,-0.03253174,-0.0005730107,0.0002314337,-487.9991,0.0033370762,-0.0054248553,-0.024247603,-0.0010907751,-2.551949e-05,-1.4980818e-05,4.813075e-06,-0.040879574,-0.03347509,-0.017969867,0.018833322,0.00031355306,0.008996956,0.0050611896,1.8940584e-05,487.9991,0.010009766,1e-04,-487.9991,0.11987669,0.11272274,0.07995164,0.04918158,inf,inf,inf,inf,inf,1,1,1,1,3,2,2,1,2,1,1,1,0,2,0,0
1777225992777000,1777225992777000,1777225652689000,47.397742,8.5455943,0.007829587,-0.046159737,-0.032592773,-0.0005730107,0.0002314337,-487.9991,0.0029011976,-0.005392089,-0.024089059,-0.0009927426,-2.551949e-05,-1.4980818e-05,4.813075e-06,-0.051183898,0.0027275726,0.012189615,0.018759862,0.00031365218,0.00892137,0.0050611896,1.8984625e-05,487.9991,0.010009766,1e-04,-487.9991,0.120278604,0.11297213,0.08025128,0.049264573,inf,inf,inf,inf,inf,1,1,1,1,3,2,2,1,2,1,1,1,0,2,0,0
1777225992785000,1777225992785000,1777225652689000,47.397742,8.5455943,0.007813822,-0.046186365,-0.032684326,-0.0005730107,0.0002314337,-487.9991,0.0028872294,-0.005220029,-0.024224063,-0.0011923114,-2.551949e-05,-1.4980818e-05,4.813075e-06,0.0014522999,0.020177018,-0.024249775,0.018730873,0.00031375137,0.008890243,0.0050611896,1.9028706e-05,487.9991,0.010009766,1e-04,-487.9991,0.12068326,0.11322236,0.08055071,0.049347434,inf,inf,inf,inf,inf,1,1,1,1,3,2,2,1,2,1,1,1,0,2,0,0
1777225992793000,1777225992793000,1777225652689000,47.397742,8.5455943,0.0077985222,-0.046211947,-0.03274536,-0.0005730107,0.0002314337,-487.9991,0.002815407,-0.005161442,-0.02438565,-0.0014223091,-2.551949e-05,-1.4980818e-05,4.813075e-06,-0.005873246,0.0060287816,-0.027325468,0.018662171,0.00031385059,0.008819398,0.0050611896,1.9072824e-05,487.9991,0.010009766,1e-04,-487.9991,0.121090665,0.11347342,0.08085104,0.049430165,inf,inf,inf,inf,inf,1,1,1,1,3,2,2,1,2,1,1,1,0,2,0,0
1777225992801000,1777225992801000,1777225652689000,47.397742,8.5455943,0.0077853976,-0.04623767,-0.032806396,-0.0005730107,0.0002314337,-487.9991,0.003048198,-0.005085324,-0.024539694,-0.0016483999,-2.551949e-05,-1.4980818e-05,4.813075e-06,0.032108534,0.008258144,-0.026143154,0.0186077,0.0003139497,0.008762782,0.0050611896,1.9116971e-05,487.9991,0.010009766,1e-04,-487.9991,0.12150082,0.11372532,0.08115102,0.04951277,inf,inf,inf,inf,inf,1,1,1,1,3,2,2,1,2,1,1,1,0,2,0,0
1777225992809000,1777225992809000,1777225652689000,47.397742,8.5455943,0.0077733127,-0.046262436,-0.03289795,-0.0005730107,0.0002314337,-487.9991,0.0030239844,-0.0049792887,-0.024288211,-0.0014723958,-2.551949e-05,-1.4980818e-05,4.813075e-06,-5.314177e-06,0.011963347,0.02478063,0.018631874,0.00031322608,0.008784816,0.0050611896,1.9150233e-05,487.9991,0.010009766,1e-04,-487.9991,0.121911295,0.11397806,0.081442274,0.04959525,inf,inf,inf,inf,inf,1,1,1,1,3,2,2,1,2,1,1,1,0,2,0,0
1777225992817000,1777225992817000,1777225652689000,47.397742,8.5455943,0.007753205,-0.04627084,-0.032958984,-0.0005730107,0.0002314337,-487.9991,0.0030020198,-0.0051480993,-0.024206964,-0.001432283,-2.551949e-05,-1.4980818e-05,4.813075e-06,0.00085974345,-0.02349726,0.0018239951,0.018592741,0.00031330608,0.0087440815,0.0050611896,1.891754e-05,487.9991,0.010009766,1e-04,-487.9991,0.11967993,0.1125997,0.07980671,0.04914112,inf,inf,inf,inf,inf,1,1,1,1,3,2,2,1,2,1,1,1,0,2,0,0
1777225992825000,1777225992825000,1777225652689000,47.397742,8.5455943,0.007734445,-0.046280652,-0.032989502,-0.0005730107,0.0002314337,-487.9991,0.0031664483,-0.0051510013,-0.023772683,-0.0010437237,-2.551949e-05,-1.4980818e-05,4.813075e-06,0.024045903,-0.0026916366,0.04622759,0.018569017,0.0003134051,0.008718682,0.0050611896,1.8961562e-05,487.9991,0.010009766,1e-04,-487.9991,0.12008051,0.112848684,0.0801051,0.049224176,inf,inf,inf,inf,inf,1,1,1,1,3,2,2,1,2,1,1,1,0,2,0,0
1777225992833000,1777225992833000,1777225652689000,47.397742,8.5455943,0.0077187927,-0.046291865,-0.033050537,-0.0005730107,0.0002314337,-487.9991,0.0033205063,-0.005327155,-0.023839604,-0.001160759,-2.551949e-05,-1.4980818e-05,4.813075e-06,0.022635074,-0.024280468,-0.016156117,0.018591115,0.0003135043,0.008739119,0.0050611896,1.900563e-05,487.9991,0.010009766,1e-04,-487.9991,0.12048383,0.1130985,0.08040531,0.0493071,inf,inf,inf,inf,inf,1,1,1,1,3,2,2,1,2,1,1,1,0,2,0,0
1777225992841000,1777225992841000,1777225652689000,47.397742,8.5455943,0.0077049024,-0.046305314,-0.033111572,-0.0005730107,0.0002314337,-487.9991,0.0033538833,-0.0055601913,-0.023750843,-0.0011262725,-2.551949e-05,-1.4980818e-05,4.813075e-06,0.007446151,-0.031322002,0.0035627743,0.018583143,0.00031360338,0.008729467,0.0050611896,1.9049727e-05,487.9991,0.010009766,1e-04,-487.9991,0.120889895,0.11334916,0.08070533,0.0493899,inf,inf,inf,inf,inf,1,1,1,1,3,2,2,1,2,1,1,1,0,2,0,0
1777225992849000,1777225992849000,1777225652689000,47.397742,8.5455943,0.0076928153,-0.04632123,-0.033172607,-0.0005730107,0.0002314337,-487.9991,0.0035073387,-0.0057700826,-0.023582611,-0.0010162657,-2.551949e-05,-1.4980818e-05,4.813075e-06,0.022364851,-0.028363228,0.013748183,0.01867744,0.00031370256,0.008822059,0.0050611896,1.9093864e-05,487.9991,0.010009766,1e-04,-487.9991,0.121298715,0.11360065,0.08100563,0.049472563,inf,inf,inf,inf,inf,1,1,1,1,3,2,2,1,2,1,1,1,0,2,0,0
1777225992857000,1777225992857000,1777225652689000,47.397742,8.5455943,0.007682667,-0.0463371,-0.033233643,-0.0005730107,0.0002314337,-487.9991,0.0035553416,-0.00540004,-0.023676107,-0.0011717957,-2.551949e-05,-1.4980818e-05,4.813075e-06,0.009084584,0.044185884,-0.018723773,0.018665485,0.00031380172,0.008808389,0.0050611896,1.9138035e-05,487.9991,0.010009766,1e-04,-487.9991,0.1217103,0.11385298,0.081305005,0.049555108,inf,inf,inf,inf,inf,1,1,1,1,3,2,2,1,2,1,1,1,0,2,0,0
1777225992865000,1777225992865000,1777225652689000,47.397742,8.5455943,0.007674135,-0.04635121,-0.033294678,-0.0005730107,0.0002314337,-487.9991,0.0035540324,-0.0052598095,-0.02399716,-0.0015555979,-2.551949e-05,-1.4980818e-05,4.813075e-06,0.0028236958,0.01551456,-0.047025267,0.018692648,0.0003139009,0.008833835,0.0050611896,1.9182244e-05,487.9991,0.010009766,1e-04,-487.9991,0.12212464,0.11404606,0.081604876,0.049626864,inf,inf,inf,inf,inf,1,1,1,1,3,2,2,1,2,1,1,1,0,2,0,0
1777225992873000,1777225992873000,1777225652689000,47.397742,8.5455943,0.007666084,-0.046347275,-0.033325195,-0.0005730107,0.0002314337,-487.9991,0.0034062222,-0.0052518076,-0.02397419,-0.0015584563,-2.551949e-05,-1.4980818e-05,4.813075e-06,-0.015327557,-0.00230767,-0.005816109,0.01867709,0.0003139814,0.008816538,0.0050611896,1.8947205e-05,487.9991,0.010009766,1e-04,-487.9991,0.11987807,0.11272273,0.07995722,0.049181573,inf,inf,inf,inf,inf,1,1,1,1,3,2,2,1,2,1,1,1,0,2,0,0
1777225992881000,1777225992881000,1777225652689000,47.397742,8.5455943,0.0076570404,-0.046347257,-0.033355713,-0.0005730107,0.0002314337,-487.9991,0.0032392622,-0.005377737,-0.024141023,-0.0017562339,-2.551949e-05,-1.4980818e-05,4.813075e-06,-0.017652098,-0.018414423,-0.029257031,0.018682757,0.00031325698,0.008820359,0.0050611896,1.8980529e-05,487.9991,0.010009766,1e-04,-487.9991,0.12027778,0.112972125,0.08024716,0.049264565,inf,inf,inf,inf,inf,1,1,1,1,3,2,2,1,2,1,1,1,0,2,0,0
1777225992889000,1777225992889000,1777225652689000,47.397742,8.5455943,0.0076485076,-0.046349823,-0.033416748,-0.0005730107,0.0002314337,-487.9991,0.0033347975,-0.005693426,-0.023985872,-0.0016369135,-2.551949e-05,-1.4980818e-05,4.813075e-06,0.01506261,-0.042064212,0.01126714,0.018628895,0.00031335594,0.008760244,0.0050611896,1.9024603e-05,487.9991,0.010009766,1e-04,-487.9991,0.12068241,0.11322235,0.08054774,0.049347427,inf,inf,inf,inf,inf,1,1,1,1,3,2,2,1,2,1,1,1,0,2,0,0
1777225992897000,1777225992897000,1777225652689000,47.397742,8.5455943,0.007642112,-0.046355456,-0.033447266,-0.0005730107,0.0002314337,-487.9991,0.0034333281,-0.005802095,-0.024109317,-0.0018008274,-2.551949e-05,-1.4980818e-05,4.813075e-06,0.015338296,-0.016116088,-0.023289116,0.018557213,0.00031345498,0.008682296,0.0050611896,1.9068717e-05,487.9991,0.010009766,1e-04,-487.9991,0.121089794,0.113473415,0.080847554,0.049430158,inf,inf,inf,inf,inf,1,1,1,1,3,2,2,1,2,1,1,1,0,2,0,0
1777225992905000,1777225992905000,1777225652689000,47.397742,8.5455943,0.0076362994,-0.046360847,-0.0335083,-0.0005730107,0.0002314337,-487.9991,0.0032323857,-0.005537406,-0.024423819,-0.002160259,-2.551949e-05,-1.4980818e-05,4.813075e-06,-0.02218774,0.030626824,-0.046910714,0.018505942,0.00031355405,0.008624768,0.0050611896,1.911287e-05,487.9991,0.010009766,1e-04,-487.9991,0.12149994,0.11372532,0.08114713,0.049512763,inf,inf,inf,inf,inf,1,1,1,1,3,2,2,1,2,1,1,1,0,2,0,0
1777225992913000,1777225992913000,1777225652689000,47.397742,8.5455943,0.0076305415,-0.04636589,-0.033569336,-0.0005730107,0.0002314337,-487.9991,0.0033102874,-0.0054680733,-0.024387432,-0.0021730452,-2.551949e-05,-1.4980818e-05,4.813075e-06,0.012578271,0.0062806937,-0.0027967615,0.018488841,0.00031365317,0.008601449,0.0050611896,1.9157058e-05,487.9991,0.010009766,1e-04,-487.9991,0.12191284,0.11397805,0.08144837,0.049595244,inf,inf,inf,inf,inf,1,1,1,1,3,2,2,1,2,1,1,1,0,2,0,0
1777225992921000,1777225992921000,1777225652689000,47.397742,8.5455943,0.0076262285,-0.04634882,-0.033599854,-0.0005730107,0.0002314337,-487.9991,0.0031775178,-0.0060057356,-0.024366962,-0.002175146,-2.551949e-05,-1.4980818e-05,4.813075e-06,-0.013589963,-0.07119029,-0.006241258,0.0185279,0.00031373356,0.008634325,0.0050611896,1.8924167e-05,487.9991,0.010009766,1e-04,-487.9991,0.119681284,0.11259969,0.07981282,0.049141113,inf,inf,inf,inf,inf,1,1,1,1,3,2,2,1,2,1,1,1,0,2,0,0
1777225992929000,1777225992929000,1777225652689000,47.397742,8.5455943,0.007620593,-0.046336897,-0.03363037,-0.0005730107,0.0002314337,-487.9991,0.002802864,-0.0063071125,-0.024284866,-0.0021206443,-2.551949e-05,-1.4980818e-05,4.813075e-06,-0.043918427,-0.041543692,0.0017494893,0.018486006,0.0003138328,0.008586172,0.0050611896,1.8968203e-05,487.9991,0.010009766,1e-04,-487.9991,0.120081894,0.11284868,0.080111325,0.049224164,inf,inf,inf,inf,inf,1,1,1,1,3,2,2,1,2,1,1,1,0,2,0,0
1777225992937000,1777225992937000,1777225652689000,47.397742,8.5455943,0.007612379,-0.04632745,-0.033691406,-0.0005730107,0.0002314337,-487.9991,0.0023464577,-0.006207273,-0.024212027,-0.0020802289,-2.551949e-05,-1.4980818e-05,4.813075e-06,-0.05422409,0.008716321,0.0008717179,0.018495623,0.00031393196,0.008589573,0.0050611896,1.901227e-05,487.9991,0.010009766,1e-04,-487.9991,0.12048525,0.113098495,0.08041104,0.04930709,inf,inf,inf,inf,inf,1,1,1,1,3,2,2,1,2,1,1,1,0,2,0,0
1777225992945000,1777225992945000,1777225652689000,47.397742,8.5455943,0.0076036793,-0.04631799,-0.033721924,-0.0005730107,0.0002314337,-487.9991,0.002072251,-0.0059387647,-0.024394242,-0.00229947,-2.551949e-05,-1.4980818e-05,4.813075e-06,-0.031899147,0.030082304,-0.030739231,0.018533954,0.00031308408,0.0086217355,0.0050611896,1.9043526e-05,487.9991,0.010009766,1e-04,-487.9991,0.12088865,0.113349155,0.08070011,0.049389884,inf,inf,inf,inf,inf,1,1,1,1,3,2,2,1,2,1,1,1,0,2,0,0
1777225992953000,1777225992953000,1777225652689000,47.397742,8.5455943,0.007594956,-0.046308637,-0.03378296,-0.0005730107,0.0002314337,-487.9991,0.00209584,-0.005897585,-0.02452762,-0.0024742526,-2.551949e-05,-1.4980818e-05,4.813075e-06,0.0052503375,0.0017672026,-0.024371313,0.0185393,0.00031318297,0.008620877,0.0050611896,1.9087649e-05,487.9991,0.010009766,1e-04,-487.9991,0.12129745,0.11360065,0.08100044,0.04947255,inf,inf,inf,inf,inf,1,1,1,1,3,2,2,1,2,1,1,1,0,2,0,0
1777225992961000,1777225992961000,1777225652689000,47.397742,8.5455943,0.007586416,-0.046300754,-0.033843994,-0.0005730107,0.0002314337,-487.9991,0.001936374,-0.0058801733,-0.02437091,-0.0023631616,-2.551949e-05,-1.4980818e-05,4.813075e-06,-0.01770195,-0.0011116881,0.012145377,0.018497478,0.00031328184,0.008572904,0.0050611896,1.9131807e-05,487.9991,0.010009766,1e-04,-487.9991,0.121709,0.11385297,0.08129988,0.049555093,inf,inf,inf,inf,inf,1,1,1,1,3,2,2,1,2,1,1,1,0,2,0,0
1777225992969000,1777225992969000,1777225652689000,47.397742,8.5455943,0.0075781997,-0.04629299,-0.03390503,-0.0005730107,0.0002314337,-487.9991,0.001958595,-0.005730673,-0.024248913,-0.0022908547,-2.551949e-05,-1.4980818e-05,4.813075e-06,0.004938918,0.015489865,0.008038244,0.018480908,0.00031338085,0.008550223,0.0050611896,1.917601e-05,487.9991,0.010009766,1e-04,-487.9991,0.12212331,0.11404605,0.081600085,0.04962685,inf,inf,inf,inf,inf,1,1,1,1,3,2,2,1,2,1,1,1,0,2,0,0
1777225992977000,1777225992977000,1777225652689000,47.397742,8.5455943,0.007560623,-0.0462698,-0.033935547,-0.0005730107,0.0002314337,-487.9991,0.0019689535,-0.005818472,-0.024470286,-0.0025313029,-2.551949e-05,-1.4980818e-05,4.813075e-06,0.0041913064,-0.015281195,-0.036449634,0.018467851,0.00031346083,0.008531086,0.0050611896,1.8941155e-05,487.9991,0.010009766,1e-04,-487.9991,0.11987691,0.11272273,0.07995177,0.04918156,inf,inf,inf,inf,inf,1,1,1,1,3,2,2,1,2,1,1,1,0,2,0,0
1777225992985000,1777225992985000,1777225652689000,47.397742,8.5455943,0.007544186,-0.046248596,-0.033966064,-0.0005730107,0.0002314337,-487.9991,0.002061843,-0.0059395763,-0.02488577,-0.0029710424,-2.551949e-05,-1.4980818e-05,4.813075e-06,0.014414067,-0.019324983,-0.060426533,0.018528063,0.00031355984,0.008585161,0.0050611896,1.8985196e-05,487.9991,0.010009766,1e-04,-487.9991,0.12027882,0.11297212,0.08025122,0.049264546,inf,inf,inf,inf,inf,1,1,1,1,3,2,2,1,2,1,1,1,0,2,0,0
1777225992993000,1777225992993000,1777225652689000,47.397742,8.5455943,0.0075298785,-0.046231452,-0.0340271,-0.0005730107,0.0002314337,-487.9991,0.002162448,-0.006306075,-0.025051257,-0.0031657685,-2.551949e-05,-1.4980818e-05,4.813075e-06,0.01529065,-0.049882893,-0.028898472,0.018557332,0.0003136589,0.008608328,0.0050611896,1.9029274e-05,487.9991,0.010009766,1e-04,-487.9991,0.12068348,0.113222346,0.080550484,0.049347408,inf,inf,inf,inf,inf,1,1,1,1,3,2,2,1,2,1,1,1,0,2,0,0
1777225993001000,1777225993001000,1777225652689000,47.397742,8.5455943,0.0075164344,-0.046217393,-0.034088135,-0.0005730107,0.0002314337,-487.9991,0.0020758526,-0.006443914,-0.02531785,-0.0034664231,-2.551949e-05,-1.4980818e-05,4.813075e-06,-0.008194458,-0.021189304,-0.041266434,0.018491056,0.00031375806,0.008535976,0.0050611896,1.9073392e-05,487.9991,0.010009766,1e-04,-487.9991,0.12109088,0.113473415,0.08084986,0.049430143,inf,inf,inf,inf,inf,1,1,1,1,3,2,2,1,2,1,1,1,0,2,0,0
1777225993009000,1777225993009000,1777225652689000,47.397742,8.5455943,0.007503516,-0.0462058,-0.03414917,-0.0005730107,0.0002314337,-487.9991,0.0020893903,-0.0064450884,-0.02528887,-0.0034761457,-2.551949e-05,-1.4980818e-05,4.813075e-06,0.0042363475,-0.0039941603,-0.0040573063,0.01843651,0.00031385725,0.008475384,0.0050611896,1.9117546e-05,487.9991,0.010009766,1e-04,-487.9991,0.12150104,0.11372531,0.08115016,0.049512748,inf,inf,inf,inf,inf,1,1,1,1,3,2,2,1,2,1,1,1,0,2,0,0
1777225993017000,1777225993017000,1777225652689000,47.397742,8.5455943,0.007491658,-0.046193656,-0.034210205,-0.0005730107,0.0002314337,-487.9991,0.002150691,-0.0061022174,-0.025475278,-0.0037056583,-2.551949e-05,-1.4980818e-05,4.813075e-06,0.010195455,0.039046858,-0.030725727,0.018385649,0.00031313405,0.00841851,0.0050611896,1.9150804e-05,487.9991,0.010009766,1e-04,-487.9991,0.12191151,0.11397805,0.0814418,0.04959523,inf,inf,inf,inf,inf,1,1,1,1,3,2,2,1,2,1,1,1,0,2,0,0
1777225993025000,1777225993025000,1777225652689000,47.397742,8.5455943,0.0074799885,-0.046157297,-0.034240723,-0.0005730107,0.0002314337,-487.9991,0.001923393,-0.0058652945,-0.025788093,-0.0040301476,-2.551949e-05,-1.4980818e-05,4.813075e-06,-0.025670534,0.02438362,-0.048138663,0.018359918,0.00031321397,0.0083873235,0.0050611896,1.8918125e-05,487.9991,0.010009766,1e-04,-487.9991,0.11968012,0.11259969,0.079806425,0.0491411,inf,inf,inf,inf,inf,1,1,1,1,3,2,2,1,2,1,1,1,0,2,0,0
1777225993033000,1777225993033000,1777225652689000,47.397742,8.5455943,0.0074673225,-0.04612185,-0.03427124,-0.0005730107,0.0002314337,-487.9991,0.0017492583,-0.0057899025,-0.026171336,-0.004430419,-2.551949e-05,-1.4980818e-05,4.813075e-06,-0.019105885,0.0043424605,-0.056648158,0.018312927,0.00031331292,0.008334802,0.0050611896,1.8962146e-05,487.9991,0.010009766,1e-04,-487.9991,0.12008071,0.11284867,0.08010584,0.04922415,inf,inf,inf,inf,inf,1,1,1,1,3,2,2,1,2,1,1,1,0,2,0,0
1777225993041000,1777225993041000,1777225652689000,47.397742,8.5455943,0.0074550817,-0.046087477,-0.034332275,-0.0005730107,0.0002314337,-487.9991,0.0018517337,-0.0056808917,-0.026475497,-0.0047567524,-2.551949e-05,-1.4980818e-05,4.813075e-06,0.015392307,0.008688213,-0.046477184,0.018345626,0.0003134119,0.008362008,0.0050611896,1.9006206e-05,487.9991,0.010009766,1e-04,-487.9991,0.12048404,0.11309849,0.080404826,0.049307078,inf,inf,inf,inf,inf,1,1,1,1,3,2,2,1,2,1,1,1,0,2,0,0
1777225993049000,1777225993049000,1777225652689000,47.397742,8.5455943,0.0074451957,-0.046054572,-0.03439331,-0.0005730107,0.0002314337,-487.9991,0.002024056,-0.0056815892,-0.026308563,-0.0046169404,-2.551949e-05,-1.4980818e-05,4.813075e-06,0.024043906,-0.0048898254,0.012686941,0.018300472,0.00031351091,0.008311516,0.0050611896,1.9050303e-05,487.9991,0.010009766,1e-04,-487.9991,0.12089011,0.11334915,0.0807048,0.049389873,inf,inf,inf,inf,inf,1,1,1,1,3,2,2,1,2,1,1,1,0,2,0,0
1777225993057000,1777225993057000,1777225652689000,47.397742,8.5455943,0.007436102,-0.04602275,-0.034454346,-0.0005730107,0.0002314337,-487.9991,0.0017862623,-0.005531205,-0.02620473,-0.004544927,-2.551949e-05,-1.4980818e-05,4.813075e-06,-0.027299702,0.014128237,0.0050687226,0.018285923,0.00031361016,0.008291777,0.0050611896,1.9094447e-05,487.9991,0.010009766,1e-04,-487.9991,0.121298924,0.11360064,0.08100542,0.049472537,inf,inf,inf,inf,inf,1,1,1,1,3,2,2,1,2,1,1,1,0,2,0,0
1777225993065000,1777225993065000,1777225652689000,47.397742,8.5455943,0.007424416,-0.045991,-0.03451538,-0.0005730107,0.0002314337,-487.9991,0.0013856501,-0.0052517173,-0.02634147,-0.004717964,-2.551949e-05,-1.4980818e-05,4.813075e-06,-0.047730636,0.030392895,-0.024741514,0.018324975,0.00031370932,0.008325797,0.0050611896,1.913862e-05,487.9991,0.010009766,1e-04,-487.9991,0.12171051,0.11385296,0.081305526,0.049555082,inf,inf,inf,inf,inf,1,1,1,1,3,2,2,1,2,1,1,1,0,2,0,0
1777225993073000,1777225993073000,1777225652689000,47.397742,8.5455943,0.007412879,-0.045959383,-0.034606934,-0.0005730107,0.0002314337,-487.9991,0.0015198691,-0.005184103,-0.026376542,-0.0047936244,-2.551949e-05,-1.4980818e-05,4.813075e-06,0.019049544,0.0040321792,-0.0117951995,0.018324414,0.0003138085,0.008320356,0.0050611896,1.9182833e-05,487.9991,0.010009766,1e-04,-487.9991,0.12212485,0.114046045,0.081605904,0.049626842,inf,inf,inf,inf,inf,1,1,1,1,3,2,2,1,2,1,1,1,0,2,0,0
1777225993081000,1777225993081000,1777225652689000,47.397742,8.5455943,0.0073923087,-0.045927398,-0.03463745,-0.0005730107,0.0002314337,-487.9991,0.0014734793,-0.0053576548,-0.026376992,-0.004806196,-2.551949e-05,-1.4980818e-05,4.813075e-06,-0.0027985238,-0.026480017,-0.008980277,0.018354766,0.0003130667,0.008345978,0.0050611896,1.8937106e-05,487.9991,0.010009766,1e-04,-487.9991,0.11987607,0.11272272,0.07994887,0.049181547,inf,inf,inf,inf,inf,1,1,1,1,3,2,2,1,2,1,1,1,0,2,0,0
1777225993089000,1777225993089000,1777225652689000,47.397742,8.5455943,0.007372201,-0.045896653,-0.034698486,-0.0005730107,0.0002314337,-487.9991,0.0013061517,-0.005067062,-0.026649619,-0.0050961794,-2.551949e-05,-1.4980818e-05,4.813075e-06,-0.018010989,0.03167192,-0.04271138,0.018376475,0.00031316554,0.008362656,0.0050611896,1.898114e-05,487.9991,0.010009766,1e-04,-487.9991,0.12027796,0.11297211,0.080247656,0.049264535,inf,inf,inf,inf,inf,1,1,1,1,3,2,2,1,2,1,1,1,0,2,0,0
1777225993097000,1777225993097000,1777225652689000,47.397742,8.5455943,0.007349834,-0.045866683,-0.03475952,-0.0005730107,0.0002314337,-487.9991,0.00079177617,-0.005166268,-0.027252339,-0.0057212785,-2.551949e-05,-1.4980818e-05,4.813075e-06,-0.061484516,-0.016921515,-0.08369097,0.018340288,0.00031326455,0.008321591,0.0050611896,1.9025218e-05,487.9991,0.010009766,1e-04,-487.9991,0.120682605,0.11322234,0.08054745,0.049347397,inf,inf,inf,inf,inf,1,1,1,1,3,2,2,1,2,1,1,1,0,2,0,0
1777225993105000,1777225993105000,1777225652689000,47.397742,8.5455943,0.007325304,-0.045837656,-0.034820557,-0.0005730107,0.0002314337,-487.9991,0.0004996874,-0.0048930845,-0.02756292,-0.0060590245,-2.551949e-05,-1.4980818e-05,4.813075e-06,-0.03378879,0.029754825,-0.04689954,0.018342644,0.00031336347,0.00831922,0.0050611896,1.906933e-05,487.9991,0.010009766,1e-04,-487.9991,0.12108999,0.1134734,0.08084754,0.04943013,inf,inf,inf,inf,inf,1,1,1,1,3,2,2,1,2,1,1,1,0,2,0,0
1777225993113000,1777225993113000,1777225652689000,47.397742,8.5455943,0.007300162,-0.045808304,-0.03491211,-0.0005730107,0.0002314337,-487.9991,0.00037535134,-0.0047690654,-0.027938938,-0.0064668073,-2.551949e-05,-1.4980818e-05,4.813075e-06,-0.012904241,0.011231726,-0.054812986,0.018377785,0.00031346254,0.008349784,0.0050611896,1.9113488e-05,487.9991,0.010009766,1e-04,-487.9991,0.121500134,0.113725305,0.08114707,0.049512733,inf,inf,inf,inf,inf,1,1,1,1,3,2,2,1,2,1,1,1,0,2,0,0
1777225993121000,1777225993121000,1777225652689000,47.397742,8.5455943,0.007273732,-0.045781866,-0.034973145,-0.0005730107,0.0002314337,-487.9991,-9.2467235e-07,-0.0051959963,-0.028061803,-0.0066258917,-2.551949e-05,-1.4980818e-05,4.813075e-06,-0.04447538,-0.057520162,-0.022910533,0.018407127,0.0003135616,0.008374704,0.0050611896,1.9157678e-05,487.9991,0.010009766,1e-04,-487.9991,0.12191303,0.113978036,0.081447035,0.049595214,inf,inf,inf,inf,inf,1,1,1,1,3,2,2,1,2,1,1,1,0,2,0,0
1777225993129000,1777225993129000,1777225652689000,47.397742,8.5455943,0.0072471993,-0.045763303,-0.03503418,-0.0005730107,0.0002314337,-487.9991,-0.0003204542,-0.0052458644,-0.028033126,-0.0065950276,-2.551949e-05,-1.4980818e-05,4.813075e-06,-0.037385486,-0.010383776,-0.005854759,0.01850349,0.00031364235,0.008466803,0.0050611896,1.892479e-05,487.9991,0.010009766,1e-04,-487.9991,0.11968147,0.11259968,0.079812065,0.049141087,inf,inf,inf,inf,inf,1,1,1,1,3,2,2,1,2,1,1,1,0,2,0,0
1777225993137000,1777225993137000,1777225652689000,47.397742,8.5455943,0.0072183986,-0.045746624,-0.035064697,-0.0005730107,0.0002314337,-487.9991,-0.00069365895,-0.0053173266,-0.027848933,-0.0064142765,-2.551949e-05,-1.4980818e-05,4.813075e-06,-0.04417195,-0.012967448,0.01389021,0.018526575,0.00031374165,0.008485753,0.0050611896,1.8968829e-05,487.9991,0.010009766,1e-04,-487.9991,0.12008208,0.11284866,0.08011229,0.049224142,inf,inf,inf,inf,inf,1,1,1,1,3,2,2,1,2,1,1,1,0,2,0,0
1777225993145000,1777225993145000,1777225652689000,47.397742,8.5455943,0.0071894247,-0.045732837,-0.035125732,-0.0005730107,0.0002314337,-487.9991,-0.0007307307,-0.0055675027,-0.027563054,-0.006137181,-2.551949e-05,-1.4980818e-05,4.813075e-06,-0.0023435832,-0.035058882,0.026897525,0.018496728,0.00031371618,0.008451924,0.0050611896,1.9010859e-05,487.9991,0.010009766,1e-04,-487.9991,0.12048507,0.11309848,0.08041048,0.049307067,inf,inf,inf,inf,inf,1,1,1,1,3,2,2,1,2,1,1,1,0,2,0,0
1777225993153000,1777225993153000,1777225652689000,47.397742,8.5455943,0.007157339,-0.045723874,-0.035186768,-0.0005730107,0.0002314337,-487.9991,-0.00075351214,-0.0058468,-0.027691552,-0.0062795463,-2.551949e-05,-1.4980818e-05,4.813075e-06,-3.7080097e-06,-0.03825952,-0.024611594,0.0184749,0.0003129937,0.008425627,0.0050611896,1.9044159e-05,487.9991,0.010009766,1e-04,-487.9991,0.12088885,0.11334913,0.08070149,0.04938986,inf,inf,inf,inf,inf,1,1,1,1,3,2,2,1,2,1,1,1,0,2,0,0
1777225993161000,1777225993161000,1777225652689000,47.397742,8.5455943,0.0071284575,-0.045719534,-0.035247803,-0.0005730107,0.0002314337,-487.9991,-0.00029970333,-0.0062715923,-0.027732605,-0.0063393232,-2.551949e-05,-1.4980818e-05,4.813075e-06,0.059482906,-0.056353748,-0.013401265,0.018536957,0.00031309255,0.008480895,0.0050611896,1.9088284e-05,487.9991,0.010009766,1e-04,-487.9991,0.12129765,0.11360063,0.081001274,0.04947253,inf,inf,inf,inf,inf,1,1,1,1,3,2,2,1,2,1,1,1,0,2,0,0
1777225993169000,1777225993169000,1777225652689000,47.397742,8.5455943,0.007101698,-0.045716166,-0.035308838,-0.0005730107,0.0002314337,-487.9991,-0.00040027968,-0.0059391647,-0.027727477,-0.0063575674,-2.551949e-05,-1.4980818e-05,4.813075e-06,-0.009893086,0.03839446,-0.007356982,0.018557219,0.0003131914,0.008494517,0.0050611896,1.9132447e-05,487.9991,0.010009766,1e-04,-487.9991,0.121709205,0.11385295,0.081301905,0.04955507,inf,inf,inf,inf,inf,1,1,1,1,3,2,2,1,2,1,1,1,0,2,0,0
1777225993177000,1777225993177000,1777225652689000,47.397742,8.5455943,0.007074737,-0.04571303,-0.03540039,-0.0005730107,0.0002314337,-487.9991,-0.0004800947,-0.006095252,-0.027818713,-0.0064775627,-2.551949e-05,-1.4980818e-05,4.813075e-06,-0.007375097,-0.022584463,-0.019127036,0.018567413,0.0003132903,0.008498216,0.0050611896,1.9176647e-05,487.9991,0.010009766,1e-04,-487.9991,0.122123525,0.11404603,0.081603065,0.049626827,inf,inf,inf,inf,inf,1,1,1,1,3,2,2,1,2,1,1,1,0,2,0,0
1777225993185000,1777225993185000,1777225652689000,47.397742,8.5455943,0.007050059,-0.045716785,-0.03543091,-0.0005730107,0.0002314337,-487.9991,-0.00042454668,-0.0063722087,-0.027761167,-0.006410161,-2.551949e-05,-1.4980818e-05,4.813075e-06,0.009517868,-0.03778657,-0.0024726612,0.018575946,0.0003133707,0.008500388,0.0050611896,1.8941702e-05,487.9991,0.010009766,1e-04,-487.9991,0.11987704,0.1127227,0.07995647,0.049181536,inf,inf,inf,inf,inf,1,1,1,1,3,2,2,1,2,1,1,1,0,2,0,0
1777225993193000,1777225993193000,1777225652689000,47.397742,8.5455943,0.0070263715,-0.04572291,-0.035461426,-0.0005730107,0.0002314337,-487.9991,-0.00046636284,-0.0063638943,-0.027670642,-0.0063162316,-2.551949e-05,-1.4980818e-05,4.813075e-06,-0.002724665,-0.0020353454,0.001961365,0.018546576,0.00031346965,0.008464763,0.0050611896,1.8985742e-05,487.9991,0.010009766,1e-04,-487.9991,0.12027898,0.112972096,0.08025652,0.049264524,inf,inf,inf,inf,inf,1,1,1,1,3,2,2,1,2,1,1,1,0,2,0,0
1777225993201000,1777225993201000,1777225652689000,47.397742,8.5455943,0.007002432,-0.04572768,-0.03552246,-0.0005730107,0.0002314337,-487.9991,-0.0006160802,-0.005912215,-0.027531736,-0.006180112,-2.551949e-05,-1.4980818e-05,4.813075e-06,-0.016283363,0.05347622,0.008312053,0.01860758,0.00031356883,0.008519653,0.0050611896,1.9029823e-05,487.9991,0.010009766,1e-04,-487.9991,0.120683655,0.11322232,0.08055567,0.049347386,inf,inf,inf,inf,inf,1,1,1,1,3,2,2,1,2,1,1,1,0,2,0,0
1777225993209000,1777225993209000,1777225652689000,47.397742,8.5455943,0.0069778026,-0.045731623,-0.035583496,-0.0005730107,0.0002314337,-487.9991,-0.0007908193,-0.0059362147,-0.02699124,-0.005648399,-2.551949e-05,-1.4980818e-05,4.813075e-06,-0.019478355,-0.0058968123,0.058804635,0.018693542,0.00031366787,0.0085996315,0.0050611896,1.9073934e-05,487.9991,0.010009766,1e-04,-487.9991,0.121091075,0.113473386,0.08085507,0.049430117,inf,inf,inf,inf,inf,1,1,1,1,3,2,2,1,2,1,1,1,0,2,0,0
1777225993217000,1777225993217000,1777225652689000,47.397742,8.5455943,0.006952854,-0.04573744,-0.035614014,-0.0005730107,0.0002314337,-487.9991,-0.0009557296,-0.0060901507,-0.027023725,-0.0056954296,-2.551949e-05,-1.4980818e-05,4.813075e-06,-0.01838214,-0.022019174,-0.012532341,0.01867243,0.00031294586,0.00857266,0.0050611896,1.9107207e-05,487.9991,0.010009766,1e-04,-487.9991,0.12149885,0.11372529,0.08114587,0.04951272,inf,inf,inf,inf,inf,1,1,1,1,3,2,2,1,2,1,1,1,0,2,0,0
1777225993225000,1777225993225000,1777225652689000,47.397742,8.5455943,0.006927933,-0.045744475,-0.03567505,-0.0005730107,0.0002314337,-487.9991,-0.0008953781,-0.0059573064,-0.026989594,-0.005681371,-2.551949e-05,-1.4980818e-05,4.813075e-06,0.009707903,0.013907674,-0.003928318,0.01871045,0.00031304473,0.008604588,0.0050611896,1.9151386e-05,487.9991,0.010009766,1e-04,-487.9991,0.12191174,0.11397802,0.08144626,0.049595203,inf,inf,inf,inf,inf,1,1,1,1,3,2,2,1,2,1,1,1,0,2,0,0
1777225993233000,1777225993233000,1777225652689000,47.397742,8.5455943,0.006895925,-0.04573445,-0.035705566,-0.0005730107,0.0002314337,-487.9991,-0.00079548714,-0.0059104958,-0.027128652,-0.0058061453,-2.551949e-05,-1.4980818e-05,4.813075e-06,0.015146956,0.0019837024,-0.027347354,0.018794144,0.00031312514,0.008682311,0.0050611896,1.8918614e-05,487.9991,0.010009766,1e-04,-487.9991,0.11968029,0.11259966,0.07981077,0.049141075,inf,inf,inf,inf,inf,1,1,1,1,3,2,2,1,2,1,1,1,0,2,0,0
1777225993241000,1777225993241000,1777225652689000,47.397742,8.5455943,0.006864414,-0.045725226,-0.035736084,-0.0005730107,0.0002314337,-487.9991,-0.0009616973,-0.0058641084,-0.027203072,-0.0058728578,-2.551949e-05,-1.4980818e-05,4.813075e-06,-0.018191643,0.0020416172,-0.01894729,0.018860597,0.0003132241,0.008742813,0.0050611896,1.8962637e-05,487.9991,0.010009766,1e-04,-487.9991,0.12008089,0.11284865,0.080110475,0.049224127,inf,inf,inf,inf,inf,1,1,1,1,3,2,2,1,2,1,1,1,0,2,0,0
1777225993249000,1777225993249000,1777225652689000,47.397742,8.5455943,0.0068327594,-0.04571878,-0.03579712,-0.0005730107,0.0002314337,-487.9991,-0.001052088,-0.006251889,-0.027340272,-0.0060085724,-2.551949e-05,-1.4980818e-05,4.813075e-06,-0.008785704,-0.052123446,-0.026484018,0.018814124,0.00031332296,0.008690504,0.0050611896,1.900669e-05,487.9991,0.010009766,1e-04,-487.9991,0.12048423,0.113098465,0.08041115,0.049307052,inf,inf,inf,inf,inf,1,1,1,1,3,2,2,1,2,1,1,1,0,2,0,0
1777225993257000,1777225993257000,1777225652689000,47.397742,8.5455943,0.006800828,-0.045716055,-0.035827637,-0.0005730107,0.0002314337,-487.9991,-0.0011551382,-0.0065728263,-0.027508125,-0.0061808093,-2.551949e-05,-1.4980818e-05,4.813075e-06,-0.010441644,-0.043666583,-0.030013265,0.01877361,0.00031342197,0.008644275,0.0050611896,1.9050785e-05,487.9991,0.010009766,1e-04,-487.9991,0.12089033,0.113349125,0.08071147,0.049389843,inf,inf,inf,inf,inf,1,1,1,1,3,2,2,1,2,1,1,1,0,2,0,0
1777225993265000,1777225993265000,1777225652689000,47.397742,8.5455943,0.006769678,-0.045717586,-0.035888672,-0.0005730107,0.0002314337,-487.9991,-0.001075066,-0.006827418,-0.027414562,-0.0060971943,-2.551949e-05,-1.4980818e-05,4.813075e-06,0.012378124,-0.035273645,0.002956949,0.018798348,0.00031352104,0.008663403,0.0050611896,1.9094921e-05,487.9991,0.010009766,1e-04,-487.9991,0.12129917,0.11360061,0.08101229,0.04947251,inf,inf,inf,inf,inf,1,1,1,1,3,2,2,1,2,1,1,1,0,2,0,0
1777225993273000,1777225993273000,1777225652689000,47.397742,8.5455943,0.006739554,-0.045719896,-0.035949707,-0.0005730107,0.0002314337,-487.9991,-0.00116764,-0.006652682,-0.027344415,-0.0060422835,-2.551949e-05,-1.4980818e-05,4.813075e-06,-0.009267936,0.018494645,0.000314787,0.018751655,0.00031362008,0.008611221,0.0050611896,1.9139088e-05,487.9991,0.010009766,1e-04,-487.9991,0.12171078,0.11385294,0.08131264,0.04955505,inf,inf,inf,inf,inf,1,1,1,1,3,2,2,1,2,1,1,1,0,2,0,0
1777225993281000,1777225993281000,1777225652689000,47.397742,8.5455943,0.006707798,-0.045724507,-0.036010742,-0.0005730107,0.0002314337,-487.9991,-0.0015362154,-0.007111619,-0.027519833,-0.006238015,-2.551949e-05,-1.4980818e-05,4.813075e-06,-0.04383209,-0.060620405,-0.030098481,0.018683527,0.0003137192,0.008537704,0.0050611896,1.9183299e-05,487.9991,0.010009766,1e-04,-487.9991,0.12212515,0.11404602,0.081612945,0.04962681,inf,inf,inf,inf,inf,1,1,1,1,3,2,2,1,2,1,1,1,0,2,0,0
1777225993289000,1777225993289000,1777225652689000,47.397742,8.5455943,0.006668058,-0.045723937,-0.03604126,-0.0005730107,0.0002314337,-487.9991,-0.0015358712,-0.007644246,-0.027940061,-0.0066437656,-2.551949e-05,-1.4980818e-05,4.813075e-06,0.002737622,-0.070817724,-0.06250711,0.018563211,0.00031297893,0.0084120985,0.0050611896,1.8937444e-05,487.9991,0.010009766,1e-04,-487.9991,0.11987627,0.112722695,0.079955265,0.049181513,inf,inf,inf,inf,inf,1,1,1,1,3,2,2,1,2,1,1,1,0,2,0,0
1777225993297000,1777225993297000,1777225652689000,47.397742,8.5455943,0.0066302074,-0.045725442,-0.036071777,-0.0005730107,0.0002314337,-487.9991,-0.0012875383,-0.0072591696,-0.027710686,-0.006406195,-2.551949e-05,-1.4980818e-05,4.813075e-06,0.033652123,0.04401724,0.01901388,0.018497149,0.00031307794,0.008342577,0.0050611896,1.898149e-05,487.9991,0.010009766,1e-04,-487.9991,0.120278195,0.11297208,0.08025373,0.049264506,inf,inf,inf,inf,inf,1,1,1,1,3,2,2,1,2,1,1,1,0,2,0,0
1777225993305000,1777225993305000,1777225652689000,47.397742,8.5455943,0.0065954267,-0.045725163,-0.036132812,-0.0005730107,0.0002314337,-487.9991,-0.0010194492,-0.007025849,-0.027657192,-0.006350573,-2.551949e-05,-1.4980818e-05,4.813075e-06,0.036039103,0.025173778,-0.002659857,0.018508311,0.00031317683,0.00835037,0.0050611896,1.9025563e-05,487.9991,0.010009766,1e-04,-487.9991,0.12068286,0.113222316,0.080553524,0.049347367,inf,inf,inf,inf,inf,1,1,1,1,3,2,2,1,2,1,1,1,0,2,0,0
1777225993313000,1777225993313000,1777225652689000,47.397742,8.5455943,0.0065622814,-0.045726113,-0.03616333,-0.0005730107,0.0002314337,-487.9991,-0.0011439034,-0.0072004725,-0.027670823,-0.006367895,-2.551949e-05,-1.4980818e-05,4.813075e-06,-0.013103207,-0.025702298,-0.010747927,0.018469997,0.0003132758,0.008308791,0.0050611896,1.9069677e-05,487.9991,0.010009766,1e-04,-487.9991,0.12109026,0.11347338,0.08085359,0.049430102,inf,inf,inf,inf,inf,1,1,1,1,3,2,2,1,2,1,1,1,0,2,0,0
1777225993321000,1777225993321000,1777225652689000,47.397742,8.5455943,0.006527598,-0.045729183,-0.036224365,-0.0005730107,0.0002314337,-487.9991,-0.0014763903,-0.0072259624,-0.02766656,-0.0063729184,-2.551949e-05,-1.4980818e-05,4.813075e-06,-0.0391782,-0.0069494303,-0.008217524,0.018488903,0.0003133747,0.008324601,0.0050611896,1.9113824e-05,487.9991,0.010009766,1e-04,-487.9991,0.121500425,0.113725275,0.081153564,0.049512707,inf,inf,inf,inf,inf,1,1,1,1,3,2,2,1,2,1,1,1,0,2,0,0
1777225993329000,1777225993329000,1777225652689000,47.397742,8.5455943,0.006492204,-0.04573322,-0.0362854,-0.0005730107,0.0002314337,-487.9991,-0.0015915155,-0.0071426923,-0.027673544,-0.0063945623,-2.551949e-05,-1.4980818e-05,4.813075e-06,-0.012073197,0.0067514405,-0.0093383705,0.01856279,0.00031347372,0.008395556,0.0050611896,1.9158015e-05,487.9991,0.010009766,1e-04,-487.9991,0.12191335,0.11397801,0.08145407,0.04959519,inf,inf,inf,inf,inf,1,1,1,1,3,2,2,1,2,1,1,1,0,2,0,0
1777225993337000,1777225993337000,1777225652689000,47.397742,8.5455943,0.0064508356,-0.045727775,-0.036315918,-0.0005730107,0.0002314337,-487.9991,-0.0015918182,-0.0072091883,-0.027479745,-0.006178878,-2.551949e-05,-1.4980818e-05,4.813075e-06,0.0024732016,-0.012853619,0.013877171,0.018556701,0.00031355518,0.008386694,0.0050611896,1.8925017e-05,487.9991,0.010009766,1e-04,-487.9991,0.1196817,0.112599656,0.07981808,0.04914106,inf,inf,inf,inf,inf,1,1,1,1,3,2,2,1,2,1,1,1,0,2,0,0
1777225993345000,1777225993345000,1777225652689000,47.397742,8.5455943,0.0064097466,-0.045724414,-0.036346436,-0.0005730107,0.0002314337,-487.9991,-0.0015720156,-0.0072266343,-0.027781453,-0.006465268,-2.551949e-05,-1.4980818e-05,4.813075e-06,0.0051442124,-0.006545722,-0.047729813,0.018609593,0.00031353006,0.008436905,0.0050611896,1.8967023e-05,487.9991,0.010009766,1e-04,-487.9991,0.12008197,0.11284864,0.08011532,0.049224112,inf,inf,inf,inf,inf,1,1,1,1,3,2,2,1,2,1,1,1,0,2,0,0
1777225993353000,1777225993353000,1777225652689000,47.397742,8.5455943,0.006370291,-0.04572192,-0.036376953,-0.0005730107,0.0002314337,-487.9991,-0.0012720759,-0.007222224,-0.027822383,-0.0064972346,-2.551949e-05,-1.4980818e-05,4.813075e-06,0.04018316,-0.0037542155,-0.014810822,0.018593824,0.00031280858,0.008418163,0.0050611896,1.9000334e-05,487.9991,0.010009766,1e-04,-487.9991,0.12048307,0.11309846,0.08040508,0.04930703,inf,inf,inf,inf,inf,1,1,1,1,3,2,2,1,2,1,1,1,0,2,0,0
1777225993361000,1777225993361000,1777225652689000,47.397742,8.5455943,0.0063321227,-0.045720264,-0.03643799,-0.0005730107,0.0002314337,-487.9991,-0.0014464434,-0.0070372825,-0.02775428,-0.0064263754,-2.551949e-05,-1.4980818e-05,4.813075e-06,-0.019185467,0.01893592,-0.00086938957,0.01858918,0.00031290736,0.008411173,0.0050611896,1.9044423e-05,487.9991,0.010009766,1e-04,-487.9991,0.120889135,0.11334911,0.08070321,0.049389828,inf,inf,inf,inf,inf,1,1,1,1,3,2,2,1,2,1,1,1,0,2,0,0
1777225993369000,1777225993369000,1777225652689000,47.397742,8.5455943,0.0062941634,-0.04571815,-0.036468506,-0.0005730107,0.0002314337,-487.9991,-0.0015207272,-0.0067745475,-0.027721694,-0.0063970704,-2.551949e-05,-1.4980818e-05,4.813075e-06,-0.00674803,0.028778419,-0.0050053927,0.018570729,0.0003130062,0.0083905235,0.0050611896,1.908855e-05,487.9991,0.010009766,1e-04,-487.9991,0.12129794,0.113600604,0.081003085,0.049472496,inf,inf,inf,inf,inf,1,1,1,1,3,2,2,1,2,1,1,1,0,2,0,0
1777225993377000,1777225993377000,1777225652689000,47.397742,8.5455943,0.006255983,-0.045715775,-0.03652954,-0.0005730107,0.0002314337,-487.9991,-0.0015530664,-0.0068115834,-0.027530557,-0.006215028,-2.551949e-05,-1.4980818e-05,4.813075e-06,-0.0015796139,-0.008584533,0.015107914,0.018562958,0.00031310495,0.008380692,0.0050611896,1.9132705e-05,487.9991,0.010009766,1e-04,-487.9991,0.1217095,0.113852926,0.081303164,0.049555037,inf,inf,inf,inf,inf,1,1,1,1,3,2,2,1,2,1,1,1,0,2,0,0
1777225993385000,1777225993385000,1777225652689000,47.397742,8.5455943,0.0062191375,-0.045716047,-0.036590576,-0.0005730107,0.0002314337,-487.9991,-0.0015742406,-0.0069321045,-0.027395315,-0.0060954746,-2.551949e-05,-1.4980818e-05,4.813075e-06,-0.00025651843,-0.018913826,0.008456874,0.018607385,0.00031320384,0.008423207,0.0050611896,1.9176907e-05,487.9991,0.010009766,1e-04,-487.9991,0.12212383,0.11404601,0.08160404,0.049626794,inf,inf,inf,inf,inf,1,1,1,1,3,2,2,1,2,1,1,1,0,2,0,0
1777225993393000,1777225993393000,1777225652689000,47.397742,8.5455943,0.0061762678,-0.04572032,-0.036621094,-0.0005730107,0.0002314337,-487.9991,-0.0018366923,-0.0065321517,-0.027635539,-0.00631998,-2.551949e-05,-1.4980818e-05,4.813075e-06,-0.03031433,0.046085805,-0.040198673,0.018621998,0.000313285,0.008436058,0.0050611896,1.8941955e-05,487.9991,0.010009766,1e-04,-487.9991,0.11987733,0.11272269,0.07995665,0.049181502,inf,inf,inf,inf,inf,1,1,1,1,3,2,2,1,2,1,1,1,0,2,0,0
1777225993401000,1777225993401000,1777225652689000,47.397742,8.5455943,0.006133454,-0.04572164,-0.03665161,-0.0005730107,0.0002314337,-487.9991,-0.0018407416,-0.0060019833,-0.027690867,-0.0063660545,-2.551949e-05,-1.4980818e-05,4.813075e-06,0.0019129126,0.062471993,-0.016760545,0.018651394,0.000313384,0.00846382,0.0050611896,1.8986e-05,487.9991,0.010009766,1e-04,-487.9991,0.12027926,0.11297207,0.08025621,0.049264494,inf,inf,inf,inf,inf,1,1,1,1,3,2,2,1,2,1,1,1,0,2,0,0
1777225993409000,1777225993409000,1777225652689000,47.397742,8.5455943,0.006092031,-0.04572106,-0.03668213,-0.0005730107,0.0002314337,-487.9991,-0.0017736667,-0.005827902,-0.027894685,-0.006566805,-2.551949e-05,-1.4980818e-05,4.813075e-06,0.010736234,0.018062886,-0.035005152,0.018691462,0.000313483,0.008502401,0.0050611896,1.903008e-05,487.9991,0.010009766,1e-04,-487.9991,0.12068394,0.1132223,0.08055611,0.049347356,inf,inf,inf,inf,inf,1,1,1,1,3,2,2,1,2,1,1,1,0,2,0,0
1777225993417000,1777225993417000,1777225652689000,47.397742,8.5455943,0.006050555,-0.0457209,-0.036743164,-0.0005730107,0.0002314337,-487.9991,-0.0019861704,-0.0057986383,-0.028192714,-0.0068677096,-2.551949e-05,-1.4980818e-05,4.813075e-06,-0.024281139,5.7600115e-05,-0.046473924,0.018705845,0.000313582,0.008515434,0.0050611896,1.9074194e-05,487.9991,0.010009766,1e-04,-487.9991,0.121091366,0.11347337,0.080855705,0.049430087,inf,inf,inf,inf,inf,1,1,1,1,3,2,2,1,2,1,1,1,0,2,0,0
1777225993425000,1777225993425000,1777225652689000,47.397742,8.5455943,0.0060115512,-0.04572158,-0.0368042,-0.0005730107,0.0002314337,-487.9991,-0.0018047277,-0.005924717,-0.027977172,-0.0066607837,-2.551949e-05,-1.4980818e-05,4.813075e-06,0.0245637,-0.019346671,0.01802109,0.01876864,0.00031286041,0.008577008,0.0050611896,1.9107469e-05,487.9991,0.010009766,1e-04,-487.9991,0.12149915,0.11372527,0.08114609,0.04951269,inf,inf,inf,inf,inf,1,1,1,1,3,2,2,1,2,1,1,1,0,2,0,0
1777225993433000,1777225993433000,1777225652689000,47.397742,8.5455943,0.0059741484,-0.045724437,-0.036865234,-0.0005730107,0.0002314337,-487.9991,-0.0018112968,-0.006018,-0.02812753,-0.0068252673,-2.551949e-05,-1.4980818e-05,4.813075e-06,0.0010025887,-0.015142518,-0.027426517,0.0187901,0.00031295925,0.008597886,0.0050611896,1.9151652e-05,487.9991,0.010009766,1e-04,-487.9991,0.12191204,0.113978006,0.081446655,0.049595173,inf,inf,inf,inf,inf,1,1,1,1,3,2,2,1,2,1,1,1,0,2,0,0
1777225993441000,1777225993441000,1777225652689000,47.397742,8.5455943,0.005932801,-0.0457232,-0.036895752,-0.0005730107,0.0002314337,-487.9991,-0.0019024897,-0.006114851,-0.027995395,-0.0066737663,-2.551949e-05,-1.4980818e-05,4.813075e-06,-0.009534871,-0.016312864,0.006092712,0.018846784,0.00031304022,0.008654119,0.0050611896,1.891884e-05,487.9991,0.010009766,1e-04,-487.9991,0.119680546,0.11259965,0.079812214,0.04914105,inf,inf,inf,inf,inf,1,1,1,1,3,2,2,1,2,1,1,1,0,2,0,0
1777225993449000,1777225993449000,1777225652689000,47.397742,8.5455943,0.005891584,-0.045725416,-0.03692627,-0.0005730107,0.0002314337,-487.9991,-0.0018843407,-0.0065096407,-0.027652344,-0.006317822,-2.551949e-05,-1.4980818e-05,4.813075e-06,0.004076713,-0.05343904,0.032790467,0.018861212,0.00031313923,0.008668169,0.0050611896,1.8962866e-05,487.9991,0.010009766,1e-04,-487.9991,0.12008116,0.11284863,0.080110826,0.049224097,inf,inf,inf,inf,inf,1,1,1,1,3,2,2,1,2,1,1,1,0,2,0,0
1777225993457000,1777225993457000,1777225652689000,47.397742,8.5455943,0.0058530974,-0.045728713,-0.036956787,-0.0005730107,0.0002314337,-487.9991,-0.0015181387,-0.0060508973,-0.02776641,-0.006425261,-2.551949e-05,-1.4980818e-05,4.813075e-06,0.047520723,0.05337503,-0.024025327,0.018889459,0.00031323815,0.008696115,0.0050611896,1.9006926e-05,487.9991,0.010009766,1e-04,-487.9991,0.1204845,0.11309845,0.08041018,0.049307022,inf,inf,inf,inf,inf,1,1,1,1,3,2,2,1,2,1,1,1,0,2,0,0
1777225993465000,1777225993465000,1777225652689000,47.397742,8.5455943,0.005818166,-0.045728743,-0.037017822,-0.0005730107,0.0002314337,-487.9991,-0.0012770667,-0.005712076,-0.027725654,-0.0063839164,-2.551949e-05,-1.4980818e-05,4.813075e-06,0.031823102,0.038499337,-0.0043581235,0.018878097,0.0003133371,0.008684533,0.0050611896,1.9051022e-05,487.9991,0.010009766,1e-04,-487.9991,0.120890595,0.1133491,0.080709815,0.049389817,inf,inf,inf,inf,inf,1,1,1,1,3,2,2,1,2,1,1,1,0,2,0,0
1777225993473000,1777225993473000,1777225652689000,47.397742,8.5455943,0.0057838787,-0.04573005,-0.03704834,-0.0005730107,0.0002314337,-487.9991,-0.0014574432,-0.0059317597,-0.027666649,-0.006330134,-2.551949e-05,-1.4980818e-05,4.813075e-06,-0.020911168,-0.031206282,-0.0017718411,0.018872809,0.00031343612,0.008679103,0.0050611896,1.9095154e-05,487.9991,0.010009766,1e-04,-487.9991,0.12129943,0.1136006,0.0810096,0.049472485,inf,inf,inf,inf,inf,1,1,1,1,3,2,2,1,2,1,1,1,0,2,0,0
1777225993481000,1777225993481000,1777225652689000,47.397742,8.5455943,0.00575028,-0.045732856,-0.037109375,-0.0005730107,0.0002314337,-487.9991,-0.0013420435,-0.0058971373,-0.027570294,-0.0062445905,-2.551949e-05,-1.4980818e-05,4.813075e-06,0.016012162,0.00067987636,0.0031935049,0.01883739,0.00031353527,0.008643609,0.0050611896,1.913933e-05,487.9991,0.010009766,1e-04,-487.9991,0.12171103,0.11385292,0.08130976,0.049555026,inf,inf,inf,inf,inf,1,1,1,1,3,2,2,1,2,1,1,1,0,2,0,0
1777225993489000,1777225993489000,1777225652689000,47.397742,8.5455943,0.0057179276,-0.04573564,-0.03717041,-0.0005730107,0.0002314337,-487.9991,-0.0012475181,-0.005815748,-0.027394881,-0.006086399,-2.551949e-05,-1.4980818e-05,4.813075e-06,0.0133883525,0.006578482,0.013407319,0.018770294,0.00031281429,0.008576501,0.0050611896,1.9172585e-05,487.9991,0.010009766,1e-04,-487.9991,0.12212291,0.114046,0.08160019,0.049626783,inf,inf,inf,inf,inf,1,1,1,1,3,2,2,1,2,1,1,1,0,2,0,0
1777225993497000,1777225993497000,1777225652689000,47.397742,8.5455943,0.005683423,-0.045729313,-0.037200928,-0.0005730107,0.0002314337,-487.9991,-0.0011055855,-0.006289017,-0.027463736,-0.006142929,-2.551949e-05,-1.4980818e-05,4.813075e-06,0.019359278,-0.06379117,-0.018759629,0.018756043,0.0003128951,0.008562611,0.0050611896,1.8937757e-05,487.9991,0.010009766,1e-04,-487.9991,0.11987651,0.11272268,0.07995365,0.04918149,inf,inf,inf,inf,inf,1,1,1,1,3,2,2,1,2,1,1,1,0,2,0,0
1777225993505000,1777225993505000,1777225652689000,47.397742,8.5455943,0.0056495103,-0.045727648,-0.037231445,-0.0005730107,0.0002314337,-487.9991,-0.0012652848,-0.0067293406,-0.027453313,-0.006126398,-2.551949e-05,-1.4980818e-05,4.813075e-06,-0.0184039,-0.05954369,-0.008524395,0.018756539,0.00031299389,0.008563448,0.0050611896,1.8981791e-05,487.9991,0.010009766,1e-04,-487.9991,0.120278426,0.112972066,0.08025311,0.049264483,inf,inf,inf,inf,inf,1,1,1,1,3,2,2,1,2,1,1,1,0,2,0,0
1777225993513000,1777225993513000,1777225652689000,47.397742,8.5455943,0.00561595,-0.045730084,-0.03729248,-0.0005730107,0.0002314337,-487.9991,-0.0011469026,-0.0070031215,-0.0275164,-0.006189365,-2.551949e-05,-1.4980818e-05,4.813075e-06,0.016311193,-0.03859652,-0.017397104,0.018739335,0.00031309278,0.00854665,0.0050611896,1.9025869e-05,487.9991,0.010009766,1e-04,-487.9991,0.12068309,0.11322229,0.08055234,0.04934734,inf,inf,inf,inf,inf,1,1,1,1,3,2,2,1,2,1,1,1,0,2,0,0
1777225993521000,1777225993521000,1777225652689000,47.397742,8.5455943,0.0055844984,-0.0457354,-0.037322998,-0.0005730107,0.0002314337,-487.9991,-0.0010899479,-0.0071105342,-0.02726967,-0.005948289,-2.551949e-05,-1.4980818e-05,4.813075e-06,0.0085865045,-0.01768169,0.02163695,0.018638426,0.00031319165,0.008446205,0.0050611896,1.9069977e-05,487.9991,0.010009766,1e-04,-487.9991,0.121090494,0.113473356,0.080851994,0.049430072,inf,inf,inf,inf,inf,1,1,1,1,3,2,2,1,2,1,1,1,0,2,0,0
1777225993529000,1777225993529000,1777225652689000,47.397742,8.5455943,0.005554797,-0.045741804,-0.037384033,-0.0005730107,0.0002314337,-487.9991,-0.00077222916,-0.007072149,-0.027010212,-0.005700067,-2.551949e-05,-1.4980818e-05,4.813075e-06,0.04113473,0.0006603804,0.023526138,0.018565536,0.0003132906,0.008373819,0.0050611896,1.911413e-05,487.9991,0.010009766,1e-04,-487.9991,0.121500656,0.11372526,0.08115152,0.04951268,inf,inf,inf,inf,inf,1,1,1,1,3,2,2,1,2,1,1,1,0,2,0,0
1777225993537000,1777225993537000,1777225652689000,47.397742,8.5455943,0.0055280467,-0.045748305,-0.03744507,-0.0005730107,0.0002314337,-487.9991,-0.00067950145,-0.006886047,-0.026833383,-0.0055398857,-2.551949e-05,-1.4980818e-05,4.813075e-06,0.012963022,0.019237198,0.013486947,0.018578306,0.0003133896,0.008387135,0.0050611896,1.9158317e-05,487.9991,0.010009766,1e-04,-487.9991,0.121913575,0.11397799,0.08145148,0.049595162,inf,inf,inf,inf,inf,1,1,1,1,3,2,2,1,2,1,1,1,0,2,0,0
1777225993545000,1777225993545000,1777225652689000,47.397742,8.5455943,0.005497284,-0.045757458,-0.037475586,-0.0005730107,0.0002314337,-487.9991,-0.00088411686,-0.006800305,-0.026410524,-0.005108197,-2.551949e-05,-1.4980818e-05,4.813075e-06,-0.024152158,0.0064442754,0.042751893,0.018581225,0.00031334706,0.008390646,0.0050611896,1.8923318e-05,487.9991,0.010009766,1e-04,-487.9991,0.11968156,0.11259964,0.07981459,0.049141034,inf,inf,inf,inf,inf,1,1,1,1,3,2,2,1,2,1,1,1,0,2,0,0
1777225993553000,1777225993553000,1777225652689000,47.397742,8.5455943,0.005466394,-0.045767434,-0.037506104,-0.0005730107,0.0002314337,-487.9991,-0.00091854535,-0.0068810517,-0.026187727,-0.0048826947,-2.551949e-05,-1.4980818e-05,4.813075e-06,-0.002929155,-0.01425224,0.018068122,0.018572498,0.00031344595,0.008382427,0.0050611896,1.8967337e-05,487.9991,0.010009766,1e-04,-487.9991,0.12008219,0.112848625,0.08011387,0.049224086,inf,inf,inf,inf,inf,1,1,1,1,3,2,2,1,2,1,1,1,0,2,0,0
1777225993561000,1777225993561000,1777225652689000,47.397742,8.5455943,0.0054367324,-0.045777597,-0.03753662,-0.0005730107,0.0002314337,-487.9991,-0.0010177896,-0.006779304,-0.02638283,-0.005080951,-2.551949e-05,-1.4980818e-05,4.813075e-06,-0.011233425,0.008469177,-0.033854503,0.018590957,0.000312725,0.008401418,0.0050611896,1.9000645e-05,487.9991,0.010009766,1e-04,-487.9991,0.12048329,0.11309844,0.08040461,0.04930701,inf,inf,inf,inf,inf,1,1,1,1,3,2,2,1,2,1,1,1,0,2,0,0
1777225993569000,1777225993569000,1777225652689000,47.397742,8.5455943,0.005406947,-0.045787077,-0.03756714,-0.0005730107,0.0002314337,-487.9991,-0.0010839337,-0.006581055,-0.026517523,-0.005224372,-2.551949e-05,-1.4980818e-05,4.813075e-06,-0.007142731,0.020650385,-0.025997868,0.0185876,0.00031282371,0.008400168,0.0050611896,1.9044732e-05,487.9991,0.010009766,1e-04,-487.9991,0.12088935,0.113349095,0.08070489,0.049389806,inf,inf,inf,inf,inf,1,1,1,1,3,2,2,1,2,1,1,1,0,2,0,0
1777225993577000,1777225993577000,1777225652689000,47.397742,8.5455943,0.005378756,-0.04579668,-0.037628174,-0.0005730107,0.0002314337,-487.9991,-0.0008446753,-0.0065689078,-0.026430944,-0.0051518683,-2.551949e-05,-1.4980818e-05,4.813075e-06,0.03099266,-0.002501252,0.0019581055,0.018572647,0.0003129225,0.008387344,0.0050611896,1.9088855e-05,487.9991,0.010009766,1e-04,-487.9991,0.121298164,0.11360059,0.081004284,0.049472474,inf,inf,inf,inf,inf,1,1,1,1,3,2,2,1,2,1,1,1,0,2,0,0
1777225993585000,1777225993585000,1777225652689000,47.397742,8.5455943,0.0053532682,-0.04580693,-0.03768921,-0.0005730107,0.0002314337,-487.9991,-0.0006404109,-0.0065034046,-0.026504291,-0.0052444413,-2.551949e-05,-1.4980818e-05,4.813075e-06,0.026582122,0.0042744484,-0.017744487,0.018595828,0.00031302118,0.0084126815,0.0050611896,1.9133011e-05,487.9991,0.010009766,1e-04,-487.9991,0.121709734,0.11385291,0.081304826,0.049555015,inf,inf,inf,inf,inf,1,1,1,1,3,2,2,1,2,1,1,1,0,2,0,0
1777225993593000,1777225993593000,1777225652689000,47.397742,8.5455943,0.005328477,-0.04581833,-0.037750244,-0.0005730107,0.0002314337,-487.9991,-0.0009092874,-0.0066420957,-0.02670505,-0.0054683588,-2.551949e-05,-1.4980818e-05,4.813075e-06,-0.032598455,-0.021142818,-0.03343634,0.018622853,0.00031312002,0.008441865,0.0050611896,1.9177212e-05,487.9991,0.010009766,1e-04,-487.9991,0.12212407,0.11404599,0.08160492,0.049626775,inf,inf,inf,inf,inf,1,1,1,1,3,2,2,1,2,1,1,1,0,2,0,0
1777225993601000,1777225993601000,1777225652689000,47.397742,8.5455943,0.0052880095,-0.04582688,-0.03778076,-0.0005730107,0.0002314337,-487.9991,-0.0011150965,-0.0067018284,-0.026760673,-0.005526334,-2.551949e-05,-1.4980818e-05,4.813075e-06,-0.024153693,-0.011839583,-0.01662364,0.018635435,0.00031320116,0.008456605,0.0050611896,1.8942257e-05,487.9991,0.010009766,1e-04,-487.9991,0.11987755,0.11272267,0.07995654,0.049181484,inf,inf,inf,inf,inf,1,1,1,1,3,2,2,1,2,1,1,1,0,2,0,0
1777225993609000,1777225993609000,1777225652689000,47.397742,8.5455943,0.005247081,-0.04583742,-0.03781128,-0.0005730107,0.0002314337,-487.9991,-0.0013178745,-0.0068750666,-0.026891291,-0.0056649796,-2.551949e-05,-1.4980818e-05,4.813075e-06,-0.0238335,-0.025905907,-0.025686806,0.01863628,0.0003133001,0.008459564,0.0050611896,1.8986299e-05,487.9991,0.010009766,1e-04,-487.9991,0.12027949,0.11297206,0.08025624,0.049264472,inf,inf,inf,inf,inf,1,1,1,1,3,2,2,1,2,1,1,1,0,2,0,0
1777225993617000,1777225993617000,1777225652689000,47.397742,8.5455943,0.005206831,-0.04584921,-0.037872314,-0.0005730107,0.0002314337,-487.9991,-0.0012214357,-0.006758,-0.027108733,-0.0058958954,-2.551949e-05,-1.4980818e-05,4.813075e-06,0.013513041,0.010496976,-0.036237292,0.018655237,0.00031339904,0.0084806215,0.0050611896,1.903038e-05,487.9991,0.010009766,1e-04,-487.9991,0.12068417,0.113222286,0.08055576,0.049347334,inf,inf,inf,inf,inf,1,1,1,1,3,2,2,1,2,1,1,1,0,2,0,0
1777225993625000,1777225993625000,1777225652689000,47.397742,8.5455943,0.005169091,-0.045861788,-0.03793335,-0.0005730107,0.0002314337,-487.9991,-0.0011863294,-0.007046441,-0.026957508,-0.005763393,-2.551949e-05,-1.4980818e-05,4.813075e-06,0.0056614825,-0.0401144,0.010139774,0.018653343,0.00031267866,0.008480828,0.0050611896,1.9063671e-05,487.9991,0.010009766,1e-04,-487.9991,0.12108926,0.11347335,0.080845974,0.049430065,inf,inf,inf,inf,inf,1,1,1,1,3,2,2,1,2,1,1,1,0,2,0,0
1777225993633000,1777225993633000,1777225652689000,47.397742,8.5455943,0.0051325713,-0.045877688,-0.037994385,-0.0005730107,0.0002314337,-487.9991,-0.0009982904,-0.0071981773,-0.02712378,-0.0059534516,-2.551949e-05,-1.4980818e-05,4.813075e-06,0.024734318,-0.02291414,-0.029262153,0.0186437,0.00031277732,0.008473467,0.0050611896,1.9107814e-05,487.9991,0.010009766,1e-04,-487.9991,0.12149939,0.11372525,0.08114576,0.04951267,inf,inf,inf,inf,inf,1,1,1,1,3,2,2,1,2,1,1,1,0,2,0,0
1777225993641000,1777225993641000,1777225652689000,47.397742,8.5455943,0.00510068,-0.045894988,-0.03805542,-0.0005730107,0.0002314337,-487.9991,-0.00041220867,-0.007270548,-0.02720099,-0.0060593453,-2.551949e-05,-1.4980818e-05,4.813075e-06,0.07444279,-0.012886421,-0.017852055,0.018591493,0.00031287604,0.008423539,0.0050611896,1.915199e-05,487.9991,0.010009766,1e-04,-487.9991,0.12191227,0.11397798,0.08144561,0.04959515,inf,inf,inf,inf,inf,1,1,1,1,3,2,2,1,2,1,1,1,0,2,0,0
1777225993649000,1777225993649000,1777225652689000,47.397742,8.5455943,0.0050574495,-0.045908384,-0.038116455,-0.0005730107,0.0002314337,-487.9991,-0.0005057841,-0.007044349,-0.026893266,-0.0057473285,-2.551949e-05,-1.4980818e-05,4.813075e-06,-0.009875389,0.023894576,0.028510576,0.018495642,0.0003129568,0.008329947,0.0050611896,1.8919214e-05,487.9991,0.010009766,1e-04,-487.9991,0.119680785,0.11259963,0.0798104,0.04914103,inf,inf,inf,inf,inf,1,1,1,1,3,2,2,1,2,1,1,1,0,2,0,0
1777225993657000,1777225993657000,1777225652689000,47.397742,8.5455943,0.005015138,-0.04592207,-0.038146973,-0.0005730107,0.0002314337,-487.9991,-0.00038567447,-0.0071422686,-0.026317252,-0.005172982,-2.551949e-05,-1.4980818e-05,4.813075e-06,0.016775135,-0.016501743,0.06236648,0.018491456,0.00031305559,0.0083279535,0.0050611896,1.8963234e-05,487.9991,0.010009766,1e-04,-487.9991,0.120081395,0.11284862,0.08010941,0.049224082,inf,inf,inf,inf,inf,1,1,1,1,3,2,2,1,2,1,1,1,0,2,0,0
1777225993665000,1777225993665000,1777225652689000,47.397742,8.5455943,0.0049751527,-0.04593808,-0.03817749,-0.0005730107,0.0002314337,-487.9991,-0.00034342924,-0.007401474,-0.02615645,-0.0050195735,-2.551949e-05,-1.4980818e-05,4.813075e-06,0.006990797,-0.036540695,0.010775401,0.018477375,0.00031315445,0.008316046,0.0050611896,1.9007293e-05,487.9991,0.010009766,1e-04,-487.9991,0.12048473,0.113098435,0.08040899,0.049307007,inf,inf,inf,inf,inf,1,1,1,1,3,2,2,1,2,1,1,1,0,2,0,0
1777225993673000,1777225993673000,1777225652689000,47.397742,8.5455943,0.0049355235,-0.045955643,-0.038238525,-0.0005730107,0.0002314337,-487.9991,-0.0005410431,-0.0072502987,-0.026550826,-0.0054268735,-2.551949e-05,-1.4980818e-05,4.813075e-06,-0.023048049,0.014879404,-0.058320347,0.018514765,0.00031325337,0.008355591,0.0050611896,1.9051393e-05,487.9991,0.010009766,1e-04,-487.9991,0.120890826,0.11334909,0.08070802,0.049389802,inf,inf,inf,inf,inf,1,1,1,1,3,2,2,1,2,1,1,1,0,2,0,0
1777225993681000,1777225993681000,1777225652689000,47.397742,8.5455943,0.004896434,-0.045972466,-0.03829956,-0.0005730107,0.0002314337,-487.9991,-0.0005167722,-0.007097883,-0.026626866,-0.005521221,-2.551949e-05,-1.4980818e-05,4.813075e-06,0.004628251,0.015150398,-0.01823576,0.018525079,0.00031335233,0.008368036,0.0050611896,1.9095525e-05,487.9991,0.010009766,1e-04,-487.9991,0.12129966,0.11360058,0.081007406,0.049472474,inf,inf,inf,inf,inf,1,1,1,1,3,2,2,1,2,1,1,1,0,2,0,0
1777225993689000,1777225993689000,1777225652689000,47.397742,8.5455943,0.0048585455,-0.045989346,-0.038330078,-0.0005730107,0.0002314337,-487.9991,-0.0005342192,-0.007043196,-0.026528578,-0.0054464703,-2.551949e-05,-1.4980818e-05,4.813075e-06,-0.0006370178,0.0030397403,0.003839377,0.01850875,0.0003134512,0.008353809,0.0050611896,1.913969e-05,487.9991,0.010009766,1e-04,-487.9991,0.121711254,0.1138529,0.08130719,0.04955501,inf,inf,inf,inf,inf,1,1,1,1,3,2,2,1,2,1,1,1,0,2,0,0
1777225993697000,1777225993697000,1777225652689000,47.397742,8.5455943,0.0048196823,-0.04600498,-0.03842163,-0.0005730107,0.0002314337,-487.9991,-0.0003912706,-0.0068896036,-0.02631197,-0.005257491,-2.551949e-05,-1.4980818e-05,4.813075e-06,0.019824704,0.015206394,0.018865334,0.018457238,0.00031273082,0.008304372,0.0050611896,1.9172945e-05,487.9991,0.010009766,1e-04,-487.9991,0.12212313,0.114045985,0.08159692,0.04962677,inf,inf,inf,inf,inf,1,1,1,1,3,2,2,1,2,1,1,1,0,2,0,0
1777225993705000,1777225993705000,1777225652689000,47.397742,8.5455943,0.004780601,-0.046022493,-0.03842163,-0.0005730107,0.0002314337,-487.9991,-3.3817963e-05,-0.0068774503,-0.026047729,-0.004983216,-2.551949e-05,-1.4980818e-05,4.813075e-06,0.046689097,-0.0027309614,0.022930557,0.018423436,0.0003128113,0.008275051,0.0050611896,1.893819e-05,487.9991,0.010009766,1e-04,-487.9991,0.119876765,0.11272266,0.07994922,0.04918148,inf,inf,inf,inf,inf,1,1,1,1,3,2,2,1,2,1,1,1,0,2,0,0
1777225993713000,1777225993713000,1777225652689000,47.397742,8.5455943,0.0047446834,-0.046041615,-0.03845215,-0.0005730107,0.0002314337,-487.9991,0.00011037946,-0.007130193,-0.025897684,-0.004829581,-2.551949e-05,-1.4980818e-05,4.813075e-06,0.019968374,-0.035724606,0.008979811,0.018417621,0.0003129101,0.008273665,0.0050611896,1.898223e-05,487.9991,0.010009766,1e-04,-487.9991,0.12027867,0.11297204,0.08024888,0.04926447,inf,inf,inf,inf,inf,1,1,1,1,3,2,2,1,2,1,1,1,0,2,0,0
1777225993721000,1777225993721000,1777225652689000,47.397742,8.5455943,0.004710755,-0.04606285,-0.038482666,-0.0005730107,0.0002314337,-487.9991,0.00014641474,-0.0070682433,-0.026030647,-0.0049651135,-2.551949e-05,-1.4980818e-05,4.813075e-06,0.006385861,0.003725301,-0.026081687,0.018432105,0.00031300893,0.008292556,0.0050611896,1.9026305e-05,487.9991,0.010009766,1e-04,-487.9991,0.12068332,0.11322228,0.08054867,0.049347326,inf,inf,inf,inf,inf,1,1,1,1,3,2,2,1,2,1,1,1,0,2,0,0
1777225993729000,1777225993729000,1777225652689000,47.397742,8.5455943,0.0046773553,-0.04608405,-0.0385437,-0.0005730107,0.0002314337,-487.9991,-2.8188715e-05,-0.0071503096,-0.025841258,-0.004784218,-2.551949e-05,-1.4980818e-05,4.813075e-06,-0.020006008,-0.014166219,0.014517455,0.01840725,0.0003131078,0.008272046,0.0050611896,1.907042e-05,487.9991,0.010009766,1e-04,-487.9991,0.12109072,0.11347334,0.08084829,0.04943006,inf,inf,inf,inf,inf,1,1,1,1,3,2,2,1,2,1,1,1,0,2,0,0
1777225993737000,1777225993737000,1777225652689000,47.397742,8.5455943,0.0046434514,-0.04610723,-0.03857422,-0.0005730107,0.0002314337,-487.9991,-0.00028026197,-0.007281314,-0.02597531,-0.0049324613,-2.551949e-05,-1.4980818e-05,4.813075e-06,-0.029747637,-0.020181838,-0.025616026,0.01847338,0.00031320658,0.0083424505,0.0050611896,1.9114563e-05,487.9991,0.010009766,1e-04,-487.9991,0.12150087,0.11372524,0.081148595,0.049512666,inf,inf,inf,inf,inf,1,1,1,1,3,2,2,1,2,1,1,1,0,2,0,0
1777225993745000,1777225993745000,1777225652689000,47.397742,8.5455943,0.004608384,-0.04613236,-0.038635254,-0.0005730107,0.0002314337,-487.9991,-0.00044412608,-0.0074177836,-0.025848322,-0.0048251124,-2.551949e-05,-1.4980818e-05,4.813075e-06,-0.018782241,-0.02068697,0.0073015685,0.018471448,0.0003131818,0.008344727,0.0050611896,1.9156683e-05,487.9991,0.010009766,1e-04,-487.9991,0.12191337,0.113977976,0.08144757,0.049595144,inf,inf,inf,inf,inf,1,1,1,1,3,2,2,1,2,1,1,1,0,2,0,0
1777225993753000,1777225993753000,1777225652689000,47.397742,8.5455943,0.00456194,-0.046167932,-0.038635254,-0.0005730107,0.0002314337,-487.9991,-0.00021978872,-0.007538813,-0.025949655,-0.0049055796,-2.551949e-05,-1.4980818e-05,4.813075e-06,0.030308371,-0.018665036,-0.023237893,0.018546341,0.00031326295,0.008423781,0.0050611896,1.8923798e-05,487.9991,0.010009766,1e-04,-487.9991,0.119681776,0.11259962,0.079812065,0.04914102,inf,inf,inf,inf,inf,1,1,1,1,3,2,2,1,2,1,1,1,0,2,0,0
1777225993761000,1777225993761000,1777225652689000,47.397742,8.5455943,0.004516704,-0.046204954,-0.03866577,-0.0005730107,0.0002314337,-487.9991,-0.00033188268,-0.007741585,-0.025771435,-0.0047132056,-2.551949e-05,-1.4980818e-05,4.813075e-06,-0.011798254,-0.028846595,0.012043397,0.018533759,0.00031254312,0.0084152855,0.0050611896,1.8957126e-05,487.9991,0.010009766,1e-04,-487.9991,0.12008019,0.1128486,0.08010231,0.04922407,inf,inf,inf,inf,inf,1,1,1,1,3,2,2,1,2,1,1,1,0,2,0,0
1777225993769000,1777225993769000,1777225652689000,47.397742,8.5455943,0.004472825,-0.046242006,-0.03869629,-0.0005730107,0.0002314337,-487.9991,-0.00027723963,-0.007365879,-0.025855739,-0.0047897724,-2.551949e-05,-1.4980818e-05,4.813075e-06,0.008975708,0.043552294,-0.020444391,0.018579317,0.0003126417,0.008465247,0.0050611896,1.900117e-05,487.9991,0.010009766,1e-04,-487.9991,0.120483495,0.11309842,0.08040221,0.049306992,inf,inf,inf,inf,inf,1,1,1,1,3,2,2,1,2,1,1,1,0,2,0,0
1777225993777000,1777225993777000,1777225652689000,47.397742,8.5455943,0.0044303895,-0.04627631,-0.038726807,-0.0005730107,0.0002314337,-487.9991,-0.00029609055,-0.007105013,-0.025703836,-0.004636306,-2.551949e-05,-1.4980818e-05,4.813075e-06,-0.00028257727,0.029281672,0.009399372,0.01847985,0.00031274033,0.008370113,0.0050611896,1.9045254e-05,487.9991,0.010009766,1e-04,-487.9991,0.12088955,0.11334907,0.08070142,0.04938979,inf,inf,inf,inf,inf,1,1,1,1,3,2,2,1,2,1,1,1,0,2,0,0
1777225993785000,1777225993785000,1777225652689000,47.397742,8.5455943,0.0043877135,-0.046309724,-0.038757324,-0.0005730107,0.0002314337,-487.9991,-0.0006613208,-0.007026596,-0.025631981,-0.0045688255,-2.551949e-05,-1.4980818e-05,4.813075e-06,-0.04364829,0.006561351,-0.00029755753,0.018461855,0.000312839,0.008356381,0.0050611896,1.9089373e-05,487.9991,0.010009766,1e-04,-487.9991,0.12129836,0.11360057,0.081001796,0.04947246,inf,inf,inf,inf,inf,1,1,1,1,3,2,2,1,2,1,1,1,0,2,0,0
1777225993793000,1777225993793000,1777225652689000,47.397742,8.5455943,0.0043442147,-0.046343222,-0.03878784,-0.0005730107,0.0002314337,-487.9991,-0.00079048757,-0.006929871,-0.02541884,-0.004365744,-2.551949e-05,-1.4980818e-05,4.813075e-06,-0.014207325,0.008937684,0.017662996,0.018477479,0.0003129377,0.008376202,0.0050611896,1.913353e-05,487.9991,0.010009766,1e-04,-487.9991,0.12170992,0.11385289,0.08130239,0.049555,inf,inf,inf,inf,inf,1,1,1,1,3,2,2,1,2,1,1,1,0,2,0,0
1777225993801000,1777225993801000,1777225652689000,47.397742,8.5455943,0.0043003997,-0.046375882,-0.03881836,-0.0005730107,0.0002314337,-487.9991,-0.0009900273,-0.0068525136,-0.025236787,-0.004199242,-2.551949e-05,-1.4980818e-05,4.813075e-06,-0.023069484,0.006606609,0.014062039,0.018533317,0.00031303646,0.0084361695,0.0050611896,1.9177727e-05,487.9991,0.010009766,1e-04,-487.9991,0.12212425,0.11404596,0.081602015,0.04962676,inf,inf,inf,inf,inf,1,1,1,1,3,2,2,1,2,1,1,1,0,2,0,0
1777225993809000,1777225993809000,1777225652689000,47.397742,8.5455943,0.0042441776,-0.046402782,-0.038848877,-0.0005730107,0.0002314337,-487.9991,-0.0007540747,-0.006986972,-0.025061097,-0.004003827,-2.551949e-05,-1.4980818e-05,4.813075e-06,0.031998284,-0.020644395,0.011466443,0.018554896,0.0003131172,0.0084617995,0.0050611896,1.8942828e-05,487.9991,0.010009766,1e-04,-487.9991,0.11987775,0.11272264,0.07995322,0.04918147,inf,inf,inf,inf,inf,1,1,1,1,3,2,2,1,2,1,1,1,0,2,0,0
1777225993817000,1777225993817000,1777225652689000,47.397742,8.5455943,0.0041904254,-0.046432234,-0.038848877,-0.0005730107,0.0002314337,-487.9991,-0.0008426938,-0.0071964883,-0.02485969,-0.0037895232,-2.551949e-05,-1.4980818e-05,4.813075e-06,-0.008649174,-0.029926477,0.015016179,0.018589215,0.00031321606,0.008500045,0.0050611896,1.8986866e-05,487.9991,0.010009766,1e-04,-487.9991,0.120279685,0.11297203,0.080252066,0.049264457,inf,inf,inf,inf,inf,1,1,1,1,3,2,2,1,2,1,1,1,0,2,0,0
1777225993825000,1777225993825000,1777225652689000,47.397742,8.5455943,0.0041369456,-0.046461307,-0.038848877,-0.0005730107,0.0002314337,-487.9991,-0.0009678077,-0.006893794,-0.024791708,-0.003715194,-2.551949e-05,-1.4980818e-05,4.813075e-06,-0.013289331,0.034206882,-0.0013369134,0.018711906,0.00031331484,0.008626593,0.0050611896,1.9030937e-05,487.9991,0.010009766,1e-04,-487.9991,0.120684355,0.11322226,0.080552496,0.04934732,inf,inf,inf,inf,inf,1,1,1,1,3,2,2,1,2,1,1,1,0,2,0,0
1777225993833000,1777225993833000,1777225652689000,47.397742,8.5455943,0.004086357,-0.046486612,-0.038879395,-0.0005730107,0.0002314337,-487.9991,-0.0008464241,-0.0063114604,-0.025165146,-0.004088527,-2.551949e-05,-1.4980818e-05,4.813075e-06,0.017125916,0.0690676,-0.05619833,0.018788854,0.00031259487,0.008707328,0.0050611896,1.9064224e-05,487.9991,0.010009766,1e-04,-487.9991,0.12108943,0.113473326,0.080843136,0.04943005,inf,inf,inf,inf,inf,1,1,1,1,3,2,2,1,2,1,1,1,0,2,0,0
1777225993841000,1777225993841000,1777225652689000,47.397742,8.5455943,0.004037903,-0.046509445,-0.038909912,-0.0005730107,0.0002314337,-487.9991,-0.00084831496,-0.006282995,-0.025372159,-0.004301449,-2.551949e-05,-1.4980818e-05,4.813075e-06,0.0016564523,-6.433219e-05,-0.035088506,0.018815216,0.00031269348,0.008738784,0.0050611896,1.9108364e-05,487.9991,0.010009766,1e-04,-487.9991,0.12149955,0.11372522,0.08114284,0.04951266,inf,inf,inf,inf,inf,1,1,1,1,3,2,2,1,2,1,1,1,0,2,0,0
1777225993849000,1777225993849000,1777225652689000,47.397742,8.5455943,0.0039910455,-0.04653309,-0.038970947,-0.0005730107,0.0002314337,-487.9991,-0.00078644586,-0.0063297693,-0.025151068,-0.004092093,-2.551949e-05,-1.4980818e-05,4.813075e-06,0.009568593,-0.009368951,0.018722376,0.018836796,0.0003127923,0.008765403,0.0050611896,1.9152547e-05,487.9991,0.010009766,1e-04,-487.9991,0.12191243,0.11397796,0.08144259,0.049595136,inf,inf,inf,inf,inf,1,1,1,1,3,2,2,1,2,1,1,1,0,2,0,0
1777225993857000,1777225993857000,1777225652689000,47.397742,8.5455943,0.003940779,-0.046546053,-0.03894043,-0.0005730107,0.0002314337,-487.9991,-0.0010954797,-0.006674656,-0.02512657,-0.0040383143,-2.551949e-05,-1.4980818e-05,4.813075e-06,-0.036663704,-0.047706563,-0.0078426665,0.018811554,0.00031287275,0.008745132,0.0050611896,1.8919827e-05,487.9991,0.010009766,1e-04,-487.9991,0.11968096,0.112599604,0.0798068,0.049141016,inf,inf,inf,inf,inf,1,1,1,1,3,2,2,1,2,1,1,1,0,2,0,0
1777225993865000,1777225993865000,1777225652689000,47.397742,8.5455943,0.0038889179,-0.046561584,-0.038970947,-0.0005730107,0.0002314337,-487.9991,-0.0015004026,-0.0067852093,-0.024959603,-0.00384836,-2.551949e-05,-1.4980818e-05,4.813075e-06,-0.048710868,-0.018291004,0.010313,0.018779024,0.00031297148,0.008717362,0.0050611896,1.8963845e-05,487.9991,0.010009766,1e-04,-487.9991,0.120081566,0.11284859,0.080105565,0.049224067,inf,inf,inf,inf,inf,1,1,1,1,3,2,2,1,2,1,1,1,0,2,0,0
1777225993873000,1777225993873000,1777225652689000,47.397742,8.5455943,0.0038375836,-0.0465789,-0.038970947,-0.0005730107,0.0002314337,-487.9991,-0.0012681477,-0.006937188,-0.02469058,-0.003562414,-2.551949e-05,-1.4980818e-05,4.813075e-06,0.030876331,-0.023346258,0.023406928,0.018781818,0.0003130703,0.00872479,0.0050611896,1.9007904e-05,487.9991,0.010009766,1e-04,-487.9991,0.12048489,0.113098405,0.08040528,0.049306992,inf,inf,inf,inf,inf,1,1,1,1,3,2,2,1,2,1,1,1,0,2,0,0
1777225993881000,1777225993881000,1777225652689000,47.397742,8.5455943,0.0037897278,-0.046597205,-0.038970947,-0.0005730107,0.0002314337,-487.9991,-0.0009620624,-0.0068739676,-0.024504185,-0.0033649448,-2.551949e-05,-1.4980818e-05,4.813075e-06,0.040046666,0.0036754115,0.013405456,0.018833973,0.00031316918,0.008781452,0.0050611896,1.9052e-05,487.9991,0.010009766,1e-04,-487.9991,0.12089097,0.11334906,0.080704354,0.049389787,inf,inf,inf,inf,inf,1,1,1,1,3,2,2,1,2,1,1,1,0,2,0,0
1777225993889000,1777225993889000,1777225652689000,47.397742,8.5455943,0.0037449582,-0.0466158,-0.038970947,-0.0005730107,0.0002314337,-487.9991,-0.00088177837,-0.0067972094,-0.024540354,-0.003395678,-2.551949e-05,-1.4980818e-05,4.813075e-06,0.011760187,0.005481406,-0.014097429,0.018794203,0.00031326807,0.008746063,0.0050611896,1.9096136e-05,487.9991,0.010009766,1e-04,-487.9991,0.1212998,0.113600545,0.081004515,0.049472455,inf,inf,inf,inf,inf,1,1,1,1,3,2,2,1,2,1,1,1,0,2,0,0
1777225993897000,1777225993897000,1777225652689000,47.397742,8.5455943,0.0037015013,-0.046635136,-0.039001465,-0.0005730107,0.0002314337,-487.9991,-0.00086753524,-0.0069765723,-0.02438899,-0.0032443034,-2.551949e-05,-1.4980818e-05,4.813075e-06,0.0034507834,-0.026473988,0.009652692,0.018792078,0.00031254863,0.008748192,0.0050611896,1.9129402e-05,487.9991,0.010009766,1e-04,-487.9991,0.12170896,0.11385287,0.08129482,0.049554992,inf,inf,inf,inf,inf,1,1,1,1,3,2,2,1,2,1,1,1,0,2,0,0
1777225993905000,1777225993905000,1777225652689000,47.397742,8.5455943,0.0036585985,-0.046655193,-0.039031982,-0.0005730107,0.0002314337,-487.9991,-0.0010623521,-0.00667672,-0.024590885,-0.0034504002,-2.551949e-05,-1.4980818e-05,4.813075e-06,-0.02274148,0.03353886,-0.03424985,0.018815352,0.00031264717,0.00877592,0.0050611896,1.9173593e-05,487.9991,0.010009766,1e-04,-487.9991,0.12212326,0.11404595,0.081595615,0.049626753,inf,inf,inf,inf,inf,1,1,1,1,3,2,2,1,2,1,1,1,0,2,0,0
1777225993913000,1777225993913000,1777225652689000,47.397742,8.5455943,0.0036118184,-0.04664668,-0.039001465,-0.0005730107,0.0002314337,-487.9991,-0.0013292381,-0.0067747077,-0.02496149,-0.0037835948,-2.551949e-05,-1.4980818e-05,4.813075e-06,-0.031659696,-0.018093968,-0.057320107,0.018773919,0.00031272744,0.008738825,0.0050611896,1.8938854e-05,487.9991,0.010009766,1e-04,-487.9991,0.119876884,0.11272263,0.07994807,0.04918146,inf,inf,inf,inf,inf,1,1,1,1,3,2,2,1,2,1,1,1,0,2,0,0
1777225993921000,1777225993921000,1777225652689000,47.397742,8.5455943,0.0035643755,-0.046641674,-0.039001465,-0.0005730107,0.0002314337,-487.9991,-0.0014553886,-0.007058952,-0.025139783,-0.0039311307,-2.551949e-05,-1.4980818e-05,4.813075e-06,-0.01412469,-0.04121433,-0.032931563,0.018796835,0.0003128262,0.008765819,0.0050611896,1.8982893e-05,487.9991,0.010009766,1e-04,-487.9991,0.12027879,0.11297201,0.080247514,0.04926445,inf,inf,inf,inf,inf,1,1,1,1,3,2,2,1,2,1,1,1,0,2,0,0
1777225993929000,1777225993929000,1777225652689000,47.397742,8.5455943,0.0035188675,-0.046638243,-0.039001465,-0.0005730107,0.0002314337,-487.9991,-0.0011658639,-0.0068849325,-0.025184112,-0.0039511253,-2.551949e-05,-1.4980818e-05,4.813075e-06,0.037782203,0.016228236,-0.015846917,0.018830178,0.00031292497,0.008803109,0.0050611896,1.9026971e-05,487.9991,0.010009766,1e-04,-487.9991,0.12068344,0.11322224,0.08054659,0.049347308,inf,inf,inf,inf,inf,1,1,1,1,3,2,2,1,2,1,1,1,0,2,0,0
1777225993937000,1777225993937000,1777225652689000,47.397742,8.5455943,0.0034761652,-0.046636615,-0.039001465,-0.0005730107,0.0002314337,-487.9991,-0.001058893,-0.0072105033,-0.025301168,-0.004050062,-2.551949e-05,-1.4980818e-05,4.813075e-06,0.014919951,-0.04606825,-0.024608335,0.018826693,0.0003130238,0.008803448,0.0050611896,1.9071085e-05,487.9991,0.010009766,1e-04,-487.9991,0.12109084,0.1134733,0.080846,0.049430043,inf,inf,inf,inf,inf,1,1,1,1,3,2,2,1,2,1,1,1,0,2,0,0
1777225993945000,1777225993945000,1777225652689000,47.397742,8.5455943,0.0034359603,-0.04663705,-0.039031982,-0.0005730107,0.0002314337,-487.9991,-0.0007485239,-0.0072078593,-0.025050152,-0.0037869487,-2.551949e-05,-1.4980818e-05,4.813075e-06,0.04034405,-0.005094398,0.021720769,0.018765276,0.0003129991,0.008745732,0.0050611896,1.9113173e-05,487.9991,0.010009766,1e-04,-487.9991,0.12150058,0.1137252,0.08114371,0.049512643,inf,inf,inf,inf,inf,1,1,1,1,3,2,2,1,2,1,1,1,0,2,0,0
1777225993953000,1777225993953000,1777225652689000,47.397742,8.5455943,0.003398186,-0.046637323,-0.039031982,-0.0005730107,0.0002314337,-487.9991,-0.00081016356,-0.0069795894,-0.025077611,-0.003808159,-2.551949e-05,-1.4980818e-05,4.813075e-06,-0.0062146713,0.023255607,-0.012777745,0.01875326,0.00031309787,0.008737069,0.0050611896,1.9157353e-05,487.9991,0.010009766,1e-04,-487.9991,0.12191347,0.11397794,0.081443444,0.04959512,inf,inf,inf,inf,inf,1,1,1,1,3,2,2,1,2,1,1,1,0,2,0,0
1777225993961000,1777225993961000,1777225652689000,47.397742,8.5455943,0.0033477135,-0.04661848,-0.039001465,-0.0005730107,0.0002314337,-487.9991,-0.00079595525,-0.006775679,-0.02541811,-0.004093412,-2.551949e-05,-1.4980818e-05,4.813075e-06,0.0038327842,0.018925035,-0.054116357,0.018763822,0.00031317907,0.008750863,0.0050611896,1.8924546e-05,487.9991,0.010009766,1e-04,-487.9991,0.11968192,0.11259958,0.07980779,0.049141,inf,inf,inf,inf,inf,1,1,1,1,3,2,2,1,2,1,1,1,0,2,0,0
1777225993969000,1777225993969000,1777225652689000,47.397742,8.5455943,0.0033029066,-0.046601918,-0.039001465,-0.0005730107,0.0002314337,-487.9991,-0.0004342784,-0.006882483,-0.025165169,-0.003792801,-2.551949e-05,-1.4980818e-05,4.813075e-06,0.04674978,-0.019479914,0.020429024,0.018814772,0.00031245966,0.008804828,0.0050611896,1.8957871e-05,487.9991,0.010009766,1e-04,-487.9991,0.120080315,0.112848565,0.08009724,0.049224053,inf,inf,inf,inf,inf,1,1,1,1,3,2,2,1,2,1,1,1,0,2,0,0
1777225993977000,1777225993977000,1777225652689000,47.397742,8.5455943,0.003260482,-0.046587586,-0.038970947,-0.0005730107,0.0002314337,-487.9991,-0.0004670868,-0.0069105388,-0.02474661,-0.003333912,-2.551949e-05,-1.4980818e-05,4.813075e-06,-0.0026138662,-0.009462437,0.041486226,0.018805563,0.00031255826,0.008796308,0.0050611896,1.9001922e-05,487.9991,0.010009766,1e-04,-487.9991,0.12048361,0.11309838,0.08039633,0.049306974,inf,inf,inf,inf,inf,1,1,1,1,3,2,2,1,2,1,1,1,0,2,0,0
1777225993985000,1777225993985000,1777225652689000,47.397742,8.5455943,0.0032195626,-0.04657524,-0.03894043,-0.0005730107,0.0002314337,-487.9991,-0.00034648372,-0.0069844546,-0.024781313,-0.0033353209,-2.551949e-05,-1.4980818e-05,4.813075e-06,0.016511012,-0.015029021,-0.014826654,0.018793182,0.00031265683,0.008784505,0.0050611896,1.9046009e-05,487.9991,0.010009766,1e-04,-487.9991,0.12088965,0.113349035,0.08069693,0.049389765,inf,inf,inf,inf,inf,1,1,1,1,3,2,2,1,2,1,1,1,0,2,0,0
1777225993993000,1777225993993000,1777225652689000,47.397742,8.5455943,0.0031819693,-0.04656445,-0.03894043,-0.0005730107,0.0002314337,-487.9991,2.0429998e-05,-0.006919332,-0.024592938,-0.0031203604,-2.551949e-05,-1.4980818e-05,4.813075e-06,0.047252934,0.002511633,0.013392883,0.0187654,0.0003127555,0.008757189,0.0050611896,1.9090134e-05,487.9991,0.010009766,1e-04,-487.9991,0.12129844,0.11360053,0.080997325,0.049472433,inf,inf,inf,inf,inf,1,1,1,1,3,2,2,1,2,1,1,1,0,2,0,0
1777225994001000,1777225994001000,1777225652689000,47.397742,8.5455943,0.003147023,-0.046554644,-0.03894043,-0.0005730107,0.0002314337,-487.9991,-1.2990343e-05,-0.0069325217,-0.024689842,-0.003197146,-2.551949e-05,-1.4980818e-05,4.813075e-06,-0.0028402335,-0.0071242405,-0.021941958,0.018734902,0.00031285416,0.008727018,0.0050611896,1.9134295e-05,487.9991,0.010009766,1e-04,-487.9991,0.12170999,0.11385285,0.08129693,0.049554974,inf,inf,inf,inf,inf,1,1,1,1,3,2,2,1,2,1,1,1,0,2,0,0
1777225994009000,1777225994009000,1777225652689000,47.397742,8.5455943,0.0031129296,-0.046547856,-0.03894043,-0.0005730107,0.0002314337,-487.9991,-1.0323101e-05,-0.007293486,-0.024834355,-0.0033268023,-2.551949e-05,-1.4980818e-05,4.813075e-06,0.0016208675,-0.050442442,-0.027603468,0.018782366,0.0003129529,0.008774664,0.0050611896,1.9178497e-05,487.9991,0.010009766,1e-04,-487.9991,0.1221243,0.114045925,0.0815972,0.04962673,inf,inf,inf,inf,inf,1,1,1,1,3,2,2,1,2,1,1,1,0,2,0,0
1777225994017000,1777225994017000,1777225652689000,47.397742,8.5455943,0.0030782705,-0.04652627,-0.038909912,-0.0005730107,0.0002314337,-487.9991,-1.8169103e-05,-0.0073801414,-0.025186207,-0.003621224,-2.551949e-05,-1.4980818e-05,4.813075e-06,0.00022905828,-0.017394958,-0.055521257,0.018812917,0.00031303384,0.008805251,0.0050611896,1.8943652e-05,487.9991,0.010009766,1e-04,-487.9991,0.11987784,0.11272261,0.07994948,0.04918144,inf,inf,inf,inf,inf,1,1,1,1,3,2,2,1,2,1,1,1,0,2,0,0
1777225994025000,1777225994025000,1777225652689000,47.397742,8.5455943,0.0030455168,-0.046507232,-0.038879395,-0.0005730107,0.0002314337,-487.9991,0.00013946978,-0.0075592077,-0.025685241,-0.0040705865,-2.551949e-05,-1.4980818e-05,4.813075e-06,0.020868206,-0.028764652,-0.07355399,0.018832076,0.00031313265,0.008824209,0.0050611896,1.8987696e-05,487.9991,0.010009766,1e-04,-487.9991,0.12027976,0.112972,0.08024814,0.04926443,inf,inf,inf,inf,inf,1,1,1,1,3,2,2,1,2,1,1,1,0,2,0,0
1777225994033000,1777225994033000,1777225652689000,47.397742,8.5455943,0.0030156355,-0.04649252,-0.038879395,-0.0005730107,0.0002314337,-487.9991,0.0003125437,-0.007930926,-0.026336746,-0.004679958,-2.551949e-05,-1.4980818e-05,4.813075e-06,0.022692142,-0.052675147,-0.09225821,0.01872985,0.00031241382,0.008721648,0.0050611896,1.9021008e-05,487.9991,0.010009766,1e-04,-487.9991,0.12068212,0.11322222,0.08053806,0.04934729,inf,inf,inf,inf,inf,1,1,1,1,3,2,2,1,2,1,1,1,0,2,0,0
1777225994041000,1777225994041000,1777225652689000,47.397742,8.5455943,0.0029869264,-0.046480663,-0.038879395,-0.0005730107,0.0002314337,-487.9991,0.00025347766,-0.007848443,-0.026581014,-0.004889378,-2.551949e-05,-1.4980818e-05,4.813075e-06,-0.00636531,0.004266354,-0.041008923,0.018618457,0.00031251236,0.00860968,0.0050611896,1.9065115e-05,487.9991,0.010009766,1e-04,-487.9991,0.12108947,0.11347329,0.08083789,0.049430024,inf,inf,inf,inf,inf,1,1,1,1,3,2,2,1,2,1,1,1,0,2,0,0
1777225994049000,1777225994049000,1777225652689000,47.397742,8.5455943,0.0029601485,-0.04646936,-0.038879395,-0.0005730107,0.0002314337,-487.9991,0.00045658878,-0.007694975,-0.026530802,-0.0048113586,-2.551949e-05,-1.4980818e-05,4.813075e-06,0.02636503,0.013302958,-0.0038645228,0.018526329,0.00031261094,0.0085168425,0.0050611896,1.9109255e-05,487.9991,0.010009766,1e-04,-487.9991,0.121499576,0.113725185,0.081137486,0.04951263,inf,inf,inf,inf,inf,1,1,1,1,3,2,2,1,2,1,1,1,0,2,0,0
1777225994057000,1777225994057000,1777225652689000,47.397742,8.5455943,0.0029343772,-0.04645847,-0.038879395,-0.0005730107,0.0002314337,-487.9991,0.00018371282,-0.0075382437,-0.026679195,-0.004938721,-2.551949e-05,-1.4980818e-05,4.813075e-06,-0.033174604,0.013877866,-0.02836529,0.018506508,0.00031270954,0.008496188,0.0050611896,1.9153435e-05,487.9991,0.010009766,1e-04,-487.9991,0.12191244,0.113977924,0.08143818,0.049595106,inf,inf,inf,inf,inf,1,1,1,1,3,2,2,1,2,1,1,1,0,2,0,0
1777225994065000,1777225994065000,1777225652689000,47.397742,8.5455943,0.0028944616,-0.046437982,-0.038848877,-0.0005730107,0.0002314337,-487.9991,-0.00019628694,-0.0076049767,-0.026830189,-0.005035542,-2.551949e-05,-1.4980818e-05,4.813075e-06,-0.046066187,-0.014876713,-0.03033364,0.018505014,0.00031279025,0.008493738,0.0050611896,1.8920757e-05,487.9991,0.010009766,1e-04,-487.9991,0.11968101,0.112599574,0.07980395,0.049140982,inf,inf,inf,inf,inf,1,1,1,1,3,2,2,1,2,1,1,1,0,2,0,0
1777225994073000,1777225994073000,1777225652689000,47.397742,8.5455943,0.0028536923,-0.046419892,-0.038848877,-0.0005730107,0.0002314337,-487.9991,-0.0003831532,-0.0076479875,-0.027295254,-0.0054540816,-2.551949e-05,-1.4980818e-05,4.813075e-06,-0.021982262,-0.011731117,-0.069229394,0.018481445,0.0003128889,0.008469006,0.0050611896,1.8964776e-05,487.9991,0.010009766,1e-04,-487.9991,0.120081596,0.11284855,0.080103464,0.049224034,inf,inf,inf,inf,inf,1,1,1,1,3,2,2,1,2,1,1,1,0,2,0,0
1777225994081000,1777225994081000,1777225652689000,47.397742,8.5455943,0.0028141937,-0.046403117,-0.038848877,-0.0005730107,0.0002314337,-487.9991,-0.00018201293,-0.007449131,-0.02743146,-0.005551109,-2.551949e-05,-1.4980818e-05,4.813075e-06,0.026466822,0.018680159,-0.027769709,0.018419798,0.00031298763,0.008406084,0.0050611896,1.9008836e-05,487.9991,0.010009766,1e-04,-487.9991,0.12048492,0.11309837,0.08040308,0.049306955,inf,inf,inf,inf,inf,1,1,1,1,3,2,2,1,2,1,1,1,0,2,0,0
1777225994089000,1777225994089000,1777225652689000,47.397742,8.5455943,0.0027784046,-0.046386726,-0.038848877,-0.0005730107,0.0002314337,-487.9991,0.00020045995,-0.0074757882,-0.027279822,-0.0053673517,-2.551949e-05,-1.4980818e-05,4.813075e-06,0.049078986,-0.009341956,0.008553266,0.018390207,0.00031308638,0.0083751045,0.0050611896,1.9052932e-05,487.9991,0.010009766,1e-04,-487.9991,0.120891,0.11334902,0.080703095,0.04938975,inf,inf,inf,inf,inf,1,1,1,1,3,2,2,1,2,1,1,1,0,2,0,0
1777225994097000,1777225994097000,1777225652689000,47.397742,8.5455943,0.002745603,-0.046372987,-0.038848877,-0.0005730107,0.0002314337,-487.9991,0.000256855,-0.007479423,-0.02710654,-0.00516877,-2.551949e-05,-1.4980818e-05,4.813075e-06,0.008272838,-0.0062946836,0.01159124,0.01836609,0.00031318516,0.008349482,0.0050611896,1.9097066e-05,487.9991,0.010009766,1e-04,-487.9991,0.12129982,0.113600515,0.08100251,0.04947242,inf,inf,inf,inf,inf,1,1,1,1,3,2,2,1,2,1,1,1,0,2,0,0
1777225994105000,1777225994105000,1777225652689000,47.397742,8.5455943,0.0027112602,-0.046359118,-0.038879395,-0.0005730107,0.0002314337,-487.9991,0.00035863172,-0.0075122374,-0.027022261,-0.005065792,-2.551949e-05,-1.4980818e-05,4.813075e-06,0.01459173,-0.010017413,0.00078883016,0.01836455,0.00031246623,0.008346332,0.0050611896,1.913034e-05,487.9991,0.010009766,1e-04,-487.9991,0.12170897,0.113852836,0.08129328,0.04955496,inf,inf,inf,inf,inf,1,1,1,1,3,2,2,1,2,1,1,1,0,2,0,0
1777225994113000,1777225994113000,1777225652689000,47.397742,8.5455943,0.0026778367,-0.046349093,-0.038879395,-0.0005730107,0.0002314337,-487.9991,0.00024050966,-0.007853299,-0.026712459,-0.0047435993,-2.551949e-05,-1.4980818e-05,4.813075e-06,-0.012956528,-0.048388664,0.02929475,0.018303454,0.00031256475,0.008285595,0.0050611896,1.9174535e-05,487.9991,0.010009766,1e-04,-487.9991,0.122123264,0.11404592,0.081594616,0.04962672,inf,inf,inf,inf,inf,1,1,1,1,3,2,2,1,2,1,1,1,0,2,0,0
1777225994121000,1777225994121000,1777225652689000,47.397742,8.5455943,0.002632551,-0.04633643,-0.038879395,-0.0005730107,0.0002314337,-487.9991,0.00021262649,-0.0075071314,-0.026245108,-0.004227272,-2.551949e-05,-1.4980818e-05,4.813075e-06,-0.0011159977,0.037040424,0.047182195,0.01832934,0.00031264493,0.008311743,0.0050611896,1.8939803e-05,487.9991,0.010009766,1e-04,-487.9991,0.1198769,0.1127226,0.07994716,0.04918143,inf,inf,inf,inf,inf,1,1,1,1,3,2,2,1,2,1,1,1,0,2,0,0
1777225994129000,1777225994129000,1777225652689000,47.397742,8.5455943,0.0025895813,-0.04632504,-0.038848877,-0.0005730107,0.0002314337,-487.9991,0.00039916043,-0.007799287,-0.026115159,-0.004055882,-2.551949e-05,-1.4980818e-05,4.813075e-06,0.025611136,-0.042582635,0.0053634862,0.01838138,0.00031274362,0.008363906,0.0050611896,1.8983847e-05,487.9991,0.010009766,1e-04,-487.9991,0.120278805,0.112971984,0.08024529,0.04926442,inf,inf,inf,inf,inf,1,1,1,1,3,2,2,1,2,1,1,1,0,2,0,0
1777225994137000,1777225994137000,1777225652689000,47.397742,8.5455943,0.002548487,-0.046316788,-0.038848877,-0.0005730107,0.0002314337,-487.9991,0.00031188806,-0.007806545,-0.026191898,-0.0040984927,-2.551949e-05,-1.4980818e-05,4.813075e-06,-0.008686436,-0.006803884,-0.020126345,0.018466443,0.00031284228,0.008449068,0.0050611896,1.9027922e-05,487.9991,0.010009766,1e-04,-487.9991,0.12068345,0.11322221,0.08054493,0.04934728,inf,inf,inf,inf,inf,1,1,1,1,3,2,2,1,2,1,1,1,0,2,0,0
1777225994145000,1777225994145000,1777225652689000,47.397742,8.5455943,0.0025093968,-0.04631001,-0.038848877,-0.0005730107,0.0002314337,-487.9991,0.00039751665,-0.007673436,-0.026318463,-0.0041979956,-2.551949e-05,-1.4980818e-05,4.813075e-06,0.012683057,0.011017694,-0.026018357,0.018510738,0.0003128177,0.008493438,0.0050611896,1.9069983e-05,487.9991,0.010009766,1e-04,-487.9991,0.12109044,0.113473274,0.08084269,0.049430016,inf,inf,inf,inf,inf,1,1,1,1,3,2,2,1,2,1,1,1,0,2,0,0
1777225994153000,1777225994153000,1777225652689000,47.397742,8.5455943,0.0024714812,-0.046304505,-0.038848877,-0.0005730107,0.0002314337,-487.9991,0.00027048783,-0.007734444,-0.026525313,-0.004384603,-2.551949e-05,-1.4980818e-05,4.813075e-06,-0.013959803,-0.013088639,-0.035727393,0.018555988,0.00031291638,0.008539917,0.0050611896,1.9114128e-05,487.9991,0.010009766,1e-04,-487.9991,0.12150058,0.11372518,0.081142955,0.04951262,inf,inf,inf,inf,inf,1,1,1,1,3,2,2,1,2,1,1,1,0,2,0,0
1777225994161000,1777225994161000,1777225652689000,47.397742,8.5455943,0.0024339517,-0.04630029,-0.038848877,-0.0005730107,0.0002314337,-487.9991,0.0001621612,-0.0076560215,-0.026480006,-0.004325591,-2.551949e-05,-1.4980818e-05,4.813075e-06,-0.011681451,0.004487141,-0.0038905998,0.018517159,0.00031301504,0.008502299,0.0050611896,1.9158306e-05,487.9991,0.010009766,1e-04,-487.9991,0.12191347,0.11397791,0.08144364,0.049595103,inf,inf,inf,inf,inf,1,1,1,1,3,2,2,1,2,1,1,1,0,2,0,0
1777225994169000,1777225994169000,1777225652689000,47.397742,8.5455943,0.0023955407,-0.0462794,-0.038848877,-0.0005730107,0.0002314337,-487.9991,0.00022480787,-0.007763635,-0.026269976,-0.0040714545,-2.551949e-05,-1.4980818e-05,4.813075e-06,0.009704224,-0.02007966,0.015095807,0.018482894,0.00031227883,0.00846923,0.0050611896,1.8914834e-05,487.9991,0.010009766,1e-04,-487.9991,0.11967973,0.11259956,0.079800166,0.04914098,inf,inf,inf,inf,inf,1,1,1,1,3,2,2,1,2,1,1,1,0,2,0,0
1777225994177000,1777225994177000,1777225652689000,47.397742,8.5455943,0.0023593833,-0.046260577,-0.03881836,-0.0005730107,0.0002314337,-487.9991,0.000402772,-0.0077658296,-0.026076546,-0.0038412004,-2.551949e-05,-1.4980818e-05,4.813075e-06,0.024059843,-0.0067228316,0.013375188,0.018490473,0.00031237726,0.008477837,0.0050611896,1.8958843e-05,487.9991,0.010009766,1e-04,-487.9991,0.12008029,0.11284854,0.08010057,0.04922403,inf,inf,inf,inf,inf,1,1,1,1,3,2,2,1,2,1,1,1,0,2,0,0
1777225994185000,1777225994185000,1777225652689000,47.397742,8.5455943,0.0023254347,-0.046244092,-0.03881836,-0.0005730107,0.0002314337,-487.9991,0.00046540238,-0.007866112,-0.025867201,-0.0036019024,-2.551949e-05,-1.4980818e-05,4.813075e-06,0.009586663,-0.018804232,0.015708616,0.018528845,0.0003124758,0.008517247,0.0050611896,1.9002897e-05,487.9991,0.010009766,1e-04,-487.9991,0.1204836,0.11309836,0.080401674,0.049306955,inf,inf,inf,inf,inf,1,1,1,1,3,2,2,1,2,1,1,1,0,2,0,0
1777225994193000,1777225994193000,1777225652689000,47.397742,8.5455943,0.0022930354,-0.04622961,-0.03881836,-0.0005730107,0.0002314337,-487.9991,0.00049778,-0.007789771,-0.025654593,-0.0033668198,-2.551949e-05,-1.4980818e-05,4.813075e-06,0.005747908,0.00345083,0.01645088,0.018635077,0.00031257438,0.008624509,0.0050611896,1.9046987e-05,487.9991,0.010009766,1e-04,-487.9991,0.120889656,0.11334901,0.0807019,0.04938975,inf,inf,inf,inf,inf,1,1,1,1,3,2,2,1,2,1,1,1,0,2,0,0
1777225994201000,1777225994201000,1777225652689000,47.397742,8.5455943,0.002261465,-0.046216093,-0.03881836,-0.0005730107,0.0002314337,-487.9991,0.00035533425,-0.007730444,-0.025789345,-0.0034862775,-2.551949e-05,-1.4980818e-05,4.813075e-06,-0.016159886,0.0014956858,-0.026644671,0.018627295,0.00031267287,0.008617753,0.0050611896,1.9091103e-05,487.9991,0.010009766,1e-04,-487.9991,0.12129846,0.1136005,0.08100176,0.049472418,inf,inf,inf,inf,inf,1,1,1,1,3,2,2,1,2,1,1,1,0,2,0,0
1777225994209000,1777225994209000,1777225652689000,47.397742,8.5455943,0.0022311471,-0.046203684,-0.03881836,-0.0005730107,0.0002314337,-487.9991,0.0006136196,-0.0076324386,-0.025648948,-0.0033374904,-2.551949e-05,-1.4980818e-05,4.813075e-06,0.03388138,0.0064975424,0.008063856,0.018639691,0.00031277153,0.008631188,0.0050611896,1.9135263e-05,487.9991,0.010009766,1e-04,-487.9991,0.12171003,0.11385283,0.081302196,0.04955496,inf,inf,inf,inf,inf,1,1,1,1,3,2,2,1,2,1,1,1,0,2,0,0
1777225994217000,1777225994217000,1777225652689000,47.397742,8.5455943,0.0022038822,-0.046194028,-0.038848877,-0.0005730107,0.0002314337,-487.9991,0.00074975233,-0.007918268,-0.025580356,-0.0032671108,-2.551949e-05,-1.4980818e-05,4.813075e-06,0.018562673,-0.041325048,-0.0006090849,0.01870515,0.00031287022,0.008697705,0.0050611896,1.9179464e-05,487.9991,0.010009766,1e-04,-487.9991,0.12212436,0.1140459,0.081602916,0.049626715,inf,inf,inf,inf,inf,1,1,1,1,3,2,2,1,2,1,1,1,0,2,0,0
1777225994225000,1777225994225000,1777225652689000,47.397742,8.5455943,0.0021777232,-0.046174996,-0.03881836,-0.0005730107,0.0002314337,-487.9991,0.0011135687,-0.007936016,-0.025463967,-0.0031205416,-2.551949e-05,-1.4980818e-05,4.813075e-06,0.047038235,-0.008770502,0.0037671996,0.018723516,0.00031295075,0.008717135,0.0050611896,1.8944482e-05,487.9991,0.010009766,1e-04,-487.9991,0.11987781,0.11272258,0.07995656,0.049181424,inf,inf,inf,inf,inf,1,1,1,1,3,2,2,1,2,1,1,1,0,2,0,0
1777225994233000,1777225994233000,1777225652689000,47.397742,8.5455943,0.0021550355,-0.046159204,-0.03881836,-0.0005730107,0.0002314337,-487.9991,0.0012575531,-0.008127295,-0.025667276,-0.0033009565,-2.551949e-05,-1.4980818e-05,4.813075e-06,0.019507429,-0.030276237,-0.035851724,0.018672293,0.00031304944,0.008666931,0.0050611896,1.8988518e-05,487.9991,0.010009766,1e-04,-487.9991,0.12027975,0.11297198,0.08025627,0.049264412,inf,inf,inf,inf,inf,1,1,1,1,3,2,2,1,2,1,1,1,0,2,0,0
1777225994241000,1777225994241000,1777225652689000,47.397742,8.5455943,0.002131847,-0.04614699,-0.03881836,-0.0005730107,0.0002314337,-487.9991,0.0014203142,-0.00828336,-0.025829928,-0.003447733,-2.551949e-05,-1.4980818e-05,4.813075e-06,0.022272043,-0.02558188,-0.030436086,0.018726204,0.00031233105,0.008721868,0.0050611896,1.9021827e-05,487.9991,0.010009766,1e-04,-487.9991,0.12068214,0.1132222,0.08054635,0.049347274,inf,inf,inf,inf,inf,1,1,1,1,3,2,2,1,2,1,1,1,0,2,0,0
1777225994249000,1777225994249000,1777225652689000,47.397742,8.5455943,0.0021109448,-0.046136595,-0.038848877,-0.0005730107,0.0002314337,-487.9991,0.0014479669,-0.008063745,-0.025892114,-0.0035008444,-2.551949e-05,-1.4980818e-05,4.813075e-06,0.0053241835,0.021546131,-0.017554032,0.01871935,0.0003124296,0.008715251,0.0050611896,1.9065934e-05,487.9991,0.010009766,1e-04,-487.9991,0.121089526,0.11347326,0.08084567,0.04943001,inf,inf,inf,inf,inf,1,1,1,1,3,2,2,1,2,1,1,1,0,2,0,0
1777225994257000,1777225994257000,1777225652689000,47.397742,8.5455943,0.0020918974,-0.046126485,-0.038848877,-0.0005730107,0.0002314337,-487.9991,0.0017711619,-0.008060282,-0.025876962,-0.0034831963,-2.551949e-05,-1.4980818e-05,4.813075e-06,0.042208068,-0.00530392,-0.0075721177,0.018678142,0.00031252817,0.008674305,0.0050611896,1.9110073e-05,487.9991,0.010009766,1e-04,-487.9991,0.12149966,0.11372516,0.08114551,0.049512614,inf,inf,inf,inf,inf,1,1,1,1,3,2,2,1,2,1,1,1,0,2,0,0
1777225994265000,1777225994265000,1777225652689000,47.397742,8.5455943,0.0020764607,-0.046118032,-0.038879395,-0.0005730107,0.0002314337,-487.9991,0.0019745668,-0.0079923095,-0.026064849,-0.003674971,-2.551949e-05,-1.4980818e-05,4.813075e-06,0.027177727,0.0029213424,-0.032646578,0.018643562,0.00031262677,0.008640019,0.0050611896,1.9154253e-05,487.9991,0.010009766,1e-04,-487.9991,0.12191255,0.113977894,0.08144494,0.049595095,inf,inf,inf,inf,inf,1,1,1,1,3,2,2,1,2,1,1,1,0,2,0,0
1777225994273000,1777225994273000,1777225652689000,47.397742,8.5455943,0.0020823842,-0.046107534,-0.038879395,-0.0005730107,0.0002314337,-487.9991,0.0023080094,-0.0082666855,-0.025677513,-0.0032631306,-2.551949e-05,-1.4980818e-05,4.813075e-06,0.04243668,-0.04043955,0.0377004,0.018623902,0.00031270704,0.008620631,0.0050611896,1.8921488e-05,487.9991,0.010009766,1e-04,-487.9991,0.11968105,0.112599544,0.07980841,0.04914097,inf,inf,inf,inf,inf,1,1,1,1,3,2,2,1,2,1,1,1,0,2,0,0
1777225994281000,1777225994281000,1777225652689000,47.397742,8.5455943,0.002089181,-0.046101425,-0.038879395,-0.0005730107,0.0002314337,-487.9991,0.0020632178,-0.008634825,-0.025278827,-0.0028463604,-2.551949e-05,-1.4980818e-05,4.813075e-06,-0.029870192,-0.05198906,0.039461065,0.018658297,0.00031280567,0.008655233,0.0050611896,1.8965507e-05,487.9991,0.010009766,1e-04,-487.9991,0.12008166,0.11284853,0.08010728,0.049224023,inf,inf,inf,inf,inf,1,1,1,1,3,2,2,1,2,1,1,1,0,2,0,0
1777225994289000,1777225994289000,1777225652689000,47.397742,8.5455943,0.0020941256,-0.04609897,-0.038879395,-0.0005730107,0.0002314337,-487.9991,0.001864067,-0.008817002,-0.025336545,-0.0028921857,-2.551949e-05,-1.4980818e-05,4.813075e-06,-0.024191746,-0.028571269,-0.017257871,0.018695673,0.00031290433,0.008692803,0.0050611896,1.9009563e-05,487.9991,0.010009766,1e-04,-487.9991,0.120485,0.113098346,0.08040684,0.049306948,inf,inf,inf,inf,inf,1,1,1,1,3,2,2,1,2,1,1,1,0,2,0,0
1777225994297000,1777225994297000,1777225652689000,47.397742,8.5455943,0.0021004507,-0.046100568,-0.038879395,-0.0005730107,0.0002314337,-487.9991,0.0021578162,-0.009119633,-0.025043434,-0.0025940891,-2.551949e-05,-1.4980818e-05,4.813075e-06,0.037398573,-0.043461062,0.026918015,0.018702412,0.00031300302,0.008699719,0.0050611896,1.9053656e-05,487.9991,0.010009766,1e-04,-487.9991,0.12089109,0.113349,0.08070687,0.049389742,inf,inf,inf,inf,inf,1,1,1,1,3,2,2,1,2,1,1,1,0,2,0,0
1777225994305000,1777225994305000,1777225652689000,47.397742,8.5455943,0.0021071392,-0.046104368,-0.038879395,-0.0005730107,0.0002314337,-487.9991,0.0019757883,-0.009076534,-0.024827061,-0.0023793397,-2.551949e-05,-1.4980818e-05,4.813075e-06,-0.022015365,-0.00013783391,0.017638316,0.01868611,0.00031228526,0.008683579,0.0050611896,1.9086943e-05,487.9991,0.010009766,1e-04,-487.9991,0.12129755,0.11360049,0.08099792,0.04947241,inf,inf,inf,inf,inf,1,1,1,1,3,2,2,1,2,1,1,1,0,2,0,0
1777225994313000,1777225994313000,1777225652689000,47.397742,8.5455943,0.0021131607,-0.04610858,-0.038909912,-0.0005730107,0.0002314337,-487.9991,0.0018423917,-0.008864322,-0.024765283,-0.0023255202,-2.551949e-05,-1.4980818e-05,4.813075e-06,-0.015959868,0.021155132,-0.0013820826,0.018766547,0.0003123838,0.008764485,0.0050611896,1.9131105e-05,487.9991,0.010009766,1e-04,-487.9991,0.1217091,0.113852814,0.08129789,0.049554948,inf,inf,inf,inf,inf,1,1,1,1,3,2,2,1,2,1,1,1,0,2,0,0
1777225994321000,1777225994321000,1777225652689000,47.397742,8.5455943,0.0021196804,-0.046113674,-0.038909912,-0.0005730107,0.0002314337,-487.9991,0.0021153525,-0.008923592,-0.024721697,-0.0022940252,-2.551949e-05,-1.4980818e-05,4.813075e-06,0.03480839,-0.012629599,-0.003414694,0.018725539,0.00031248239,0.008723905,0.0050611896,1.9175304e-05,487.9991,0.010009766,1e-04,-487.9991,0.12212341,0.114045896,0.08159783,0.049626704,inf,inf,inf,inf,inf,1,1,1,1,3,2,2,1,2,1,1,1,0,2,0,0
1777225994329000,1777225994329000,1777225652689000,47.397742,8.5455943,0.0021364265,-0.046116002,-0.038909912,-0.0005730107,0.0002314337,-487.9991,0.0023922718,-0.009019172,-0.024859894,-0.0024076654,-2.551949e-05,-1.4980818e-05,4.813075e-06,0.034976233,-0.017813714,-0.027982982,0.01872487,0.00031256245,0.00872363,0.0050611896,1.8940518e-05,487.9991,0.010009766,1e-04,-487.9991,0.119877,0.112722576,0.079950266,0.049181417,inf,inf,inf,inf,inf,1,1,1,1,3,2,2,1,2,1,1,1,0,2,0,0
1777225994337000,1777225994337000,1777225652689000,47.397742,8.5455943,0.0021541442,-0.046120714,-0.038909912,-0.0005730107,0.0002314337,-487.9991,0.002322903,-0.00920937,-0.024685178,-0.0022148695,-2.551949e-05,-1.4980818e-05,4.813075e-06,-0.0083269505,-0.029480007,0.011472496,0.018736055,0.00031266108,0.008735102,0.0050611896,1.8984556e-05,487.9991,0.010009766,1e-04,-487.9991,0.12027892,0.11297196,0.08024899,0.049264405,inf,inf,inf,inf,inf,1,1,1,1,3,2,2,1,2,0,1,1,0,2,0,0
1777225994345000,1777225994345000,1777225652689000,47.397742,8.5455943,0.0021710342,-0.046128094,-0.038909912,-0.0005730107,0.0002314337,-487.9991,0.002177725,-0.0091743395,-0.024741514,-0.0022594174,-2.551949e-05,-1.4980818e-05,4.813075e-06,-0.017815743,-0.0011671126,-0.01707766,0.01878041,0.0003127597,0.008779708,0.0050611896,1.902863e-05,487.9991,0.010192871,0.0017000007,-487.9991,0.120683566,0.11322219,0.08054795,0.049347267,inf,inf,inf,inf,inf,1,1,1,1,3,2,2,1,2,0,1,1,0,2,0,0
1777225994353000,1777225994353000,1777225652689000,47.397742,8.5455943,0.0021870818,-0.046135686,-0.038909912,-0.0005730107,0.0002314337,-487.9991,0.0020848745,-0.008930392,-0.025057686,-0.0025698675,-2.551949e-05,-1.4980818e-05,4.813075e-06,-0.011287045,0.025112094,-0.049235296,0.018832274,0.0003128584,0.00883178,0.0050611896,1.9072744e-05,487.9991,0.010375977,0.0033000014,-487.9991,0.12109096,0.11347325,0.080848016,0.049429998,inf,inf,inf,inf,inf,1,1,1,1,3,2,2,1,2,0,1,1,0,2,0,0
1777225994361000,1777225994361000,1777225652689000,47.397742,8.5455943,0.0022035367,-0.046142325,-0.038909912,-0.0005730107,0.0002314337,-487.9991,0.0021081825,-0.00861844,-0.02495459,-0.0024668872,-2.551949e-05,-1.4980818e-05,4.813075e-06,0.0032215104,0.033768497,0.0034859402,0.018870052,0.0003129571,0.008869726,0.0050611896,1.9116895e-05,487.9991,0.010559082,0.004900002,-487.9991,0.121501125,0.113725156,0.08114781,0.049512606,inf,inf,inf,inf,inf,1,1,1,1,3,2,2,1,2,0,1,1,0,2,0,0
