timestamp,timestamp_sample,ref_timestamp,ref_lat,ref_lon,x,y,z,delta_xy[0],delta_xy[1],delta_z,vx,vy,vz,z_deriv,delta_vxy[0],delta_vxy[1],delta_vz,ax,ay,az,heading,heading_var,unaided_heading,delta_heading,tilt_var,ref_alt,dist_bottom,dist_bottom_var,delta_dist_bottom,eph,epv,evh,evv,vxy_max,vz_max,hagl_min,hagl_max_z,hagl_max_xy,xy_valid,z_valid,v_xy_valid,v_z_valid,xy_reset_counter,z_reset_counter,vxy_reset_counter,vz_reset_counter,heading_reset_counter,heading_good_for_control,xy_global,z_global,dist_bottom_valid,dist_bottom_reset_counter,dist_bottom_sensor_bitfield,dead_reckoning
1777226214745000,1777226214745000,1777225652689000,47.397742,8.5455943,168.56047,-0.04206806,-0.03704834,-31.36856,0.32092425,-487.9991,0.014006448,-0.025038755,-0.021522248,0.0026905686,-4.341242,0.08477419,0.016262472,0.0075675487,-0.0008195606,-0.020793637,0.0031006483,0.00028062085,-0.018745545,0.0050611896,1.8737963e-05,487.9991,0.010009766,1e-04,-487.9991,0.12191277,0.11398475,0.08144108,0.049602542,inf,inf,inf,inf,inf,1,1,1,1,4,2,3,2,2,1,1,1,0,2,0,0
1777226214753000,1777226214753000,1777225652689000,47.397742,8.5455943,168.56041,-0.04210976,-0.03704834,-31.36856,0.32092425,-487.9991,0.0139401285,-0.02486469,-0.02136554,0.0028378433,-4.341242,0.08477419,0.016262472,0.006576781,0.0045724297,0.010325107,0.0031172717,0.00028069763,-0.018724956,0.0050611896,1.8505309e-05,487.9991,0.010009766,1e-04,-487.9991,0.1196813,0.11260607,0.07980591,0.04914822,inf,inf,inf,inf,inf,1,1,1,1,4,2,3,2,2,1,1,1,0,2,0,0
1777226214761000,1777226214761000,1777225652689000,47.397742,8.5455943,168.56035,-0.042152725,-0.037017822,-31.36856,0.32092425,-487.9991,0.014110494,-0.024406634,-0.02121874,0.0029692408,-4.341242,0.08477419,0.016262472,0.035636894,0.040591486,0.009386334,0.003176851,0.00028002428,-0.018661657,0.0050611896,1.8538416e-05,487.9991,0.010009766,1e-04,-487.9991,0.12007966,0.112855114,0.08009545,0.049231313,inf,inf,inf,inf,inf,1,1,1,1,4,2,3,2,2,1,1,1,0,2,0,0
1777226214769000,1777226214769000,1777225652689000,47.397742,8.5455943,168.5603,-0.04219624,-0.037017822,-31.36856,0.32092425,-487.9991,0.014170939,-0.02417484,-0.02127863,0.0028881794,-4.341242,0.08477419,0.016262472,0.021479528,0.012773078,-0.01615891,0.003158027,0.0002801186,-0.01867722,0.0050611896,1.8582436e-05,487.9991,0.010009766,1e-04,-487.9991,0.12048294,0.11310499,0.080394484,0.04931427,inf,inf,inf,inf,inf,1,1,1,1,4,2,3,2,2,1,1,1,0,2,0,0
1777226214777000,1777226214777000,1777225652689000,47.397742,8.5455943,168.56026,-0.042242054,-0.036987305,-31.36856,0.32092425,-487.9991,0.014175897,-0.024067393,-0.021462163,0.0026779247,-4.341242,0.08477419,0.016262472,0.014143442,-0.002320612,-0.03133155,0.003064651,0.0002802131,-0.018767407,0.0050611896,1.8626499e-05,487.9991,0.010009766,1e-04,-487.9991,0.12088895,0.1133557,0.0806943,0.049397103,inf,inf,inf,inf,inf,1,1,1,1,4,2,3,2,2,1,1,1,0,2,0,0
1777226214785000,1777226214785000,1777225652689000,47.397742,8.5455943,168.56021,-0.04228964,-0.036987305,-31.36856,0.32092425,-487.9991,0.013945736,-0.02377237,-0.021741634,0.0023664464,-4.341242,0.08477419,0.016262472,-0.015637197,0.021570146,-0.04304945,0.0031278967,0.00028030763,-0.018701041,0.0050611896,1.8670598e-05,487.9991,0.010009766,1e-04,-487.9991,0.121297725,0.11360725,0.08099499,0.049479805,inf,inf,inf,inf,inf,1,1,1,1,4,2,3,2,2,1,1,1,0,2,0,0
1777226214793000,1777226214793000,1777225652689000,47.397742,8.5455943,168.56018,-0.04233898,-0.037017822,-31.36856,0.32092425,-487.9991,0.013355211,-0.023728339,-0.021487689,0.0025833112,-4.341242,0.08477419,0.016262472,-0.06107233,-0.009374528,0.02389401,0.003088889,0.00028040214,-0.018737003,0.0050611896,1.8714733e-05,487.9991,0.010009766,1e-04,-487.9991,0.12170926,0.11385963,0.08129424,0.04956238,inf,inf,inf,inf,inf,1,1,1,1,4,2,3,2,2,1,1,1,0,2,0,0
1777226214801000,1777226214801000,1777225652689000,47.397742,8.5455943,168.56013,-0.04239264,-0.037017822,-31.36856,0.32092425,-487.9991,0.013080516,-0.02401581,-0.021445718,0.0025832572,-4.341242,0.08477419,0.016262472,-0.021970103,-0.05039468,-0.002352055,0.0030606566,0.0002804967,-0.018762268,0.0050611896,1.8758903e-05,487.9991,0.010009766,1e-04,-487.9991,0.12212355,0.11405276,0.0815938,0.049634174,inf,inf,inf,inf,inf,1,1,1,1,4,2,3,2,2,1,1,1,0,2,0,0
1777226214809000,1777226214809000,1777225652689000,47.397742,8.5455943,168.56007,-0.042414352,-0.036987305,-31.36856,0.32092425,-487.9991,0.012871818,-0.02382291,-0.021569692,0.002457039,-4.341242,0.08477419,0.016262472,-0.01197317,0.0064016692,-0.024892854,0.0030315556,0.00028057327,-0.018788472,0.0050611896,1.8524224e-05,487.9991,0.010009766,1e-04,-487.9991,0.11987718,0.112729125,0.079947226,0.04918869,inf,inf,inf,inf,inf,1,1,1,1,4,2,3,2,2,1,1,1,0,2,0,0
1777226214817000,1777226214817000,1777225652689000,47.397742,8.5455943,168.56003,-0.042438596,-0.036956787,-31.36856,0.32092425,-487.9991,0.013039627,-0.023726463,-0.021550227,0.0024680553,-4.341242,0.08477419,0.016262472,0.034676235,-0.0051611154,-0.0066594216,0.0029462175,0.000280668,-0.018871205,0.0050611896,1.8568244e-05,487.9991,0.010009766,1e-04,-487.9991,0.12027908,0.11297857,0.080247104,0.049271718,inf,inf,inf,inf,inf,1,1,1,1,4,2,3,2,2,1,1,1,0,2,0,0
1777226214825000,1777226214825000,1777225652689000,47.397742,8.5455943,168.55997,-0.042465966,-0.036956787,-31.36856,0.32092425,-487.9991,0.013132176,-0.023605162,-0.021549897,0.0024540117,-4.341242,0.08477419,0.016262472,0.024869585,-0.0015724071,-0.00875676,0.0028747884,0.0002807626,-0.018940093,0.0050611896,1.8612289e-05,487.9991,0.010009766,1e-04,-487.9991,0.12068372,0.11322886,0.08054675,0.049354613,inf,inf,inf,inf,inf,1,1,1,1,4,2,3,2,2,1,1,1,0,2,0,0
1777226214833000,1777226214833000,1777225652689000,47.397742,8.5455943,168.55992,-0.042494375,-0.036956787,-31.36856,0.32092425,-487.9991,0.013326252,-0.023319762,-0.022071222,0.0019126302,-4.341242,0.08477419,0.016262472,0.037072778,0.0191495,-0.07367692,0.002873692,0.00028008895,-0.01893871,0.0050611896,1.864535e-05,487.9991,0.010009766,1e-04,-487.9991,0.12108875,0.11347998,0.080837205,0.049437385,inf,inf,inf,inf,inf,1,1,1,1,4,2,3,2,2,1,1,1,0,2,0,0
1777226214841000,1777226214841000,1777225652689000,47.397742,8.5455943,168.55989,-0.04252293,-0.036956787,-31.36856,0.32092425,-487.9991,0.013221619,-0.02283356,-0.02204368,0.0019146565,-4.341242,0.08477419,0.016262472,-0.0006445188,0.04471468,-0.0047911885,0.0028909594,0.0002801834,-0.018917099,0.0050611896,1.8689467e-05,487.9991,0.010009766,1e-04,-487.9991,0.121498846,0.113731936,0.08113723,0.049520023,inf,inf,inf,inf,inf,1,1,1,1,4,2,3,2,2,1,1,1,0,2,0,0
1777226214849000,1777226214849000,1777225652689000,47.397742,8.5455943,168.55984,-0.042553592,-0.036956787,-31.36856,0.32092425,-487.9991,0.013220007,-0.022873737,-0.021975996,0.001951617,-4.341242,0.08477419,0.016262472,0.011863259,-0.020633176,0.0004963949,0.002855126,0.00028027786,-0.018948643,0.0050611896,1.8733619e-05,487.9991,0.010009766,1e-04,-487.9991,0.1219117,0.113984734,0.08143804,0.04960254,inf,inf,inf,inf,inf,1,1,1,1,4,2,3,2,2,1,1,1,0,2,0,0
1777226214857000,1777226214857000,1777225652689000,47.397742,8.5455943,168.5598,-0.042552672,-0.03692627,-31.36856,0.32092425,-487.9991,0.013318184,-0.022936648,-0.021731483,0.0022070494,-4.341242,0.08477419,0.016262472,0.025993371,-0.026676225,0.02070749,0.0028523246,0.00028035446,-0.01894721,0.0050611896,1.8501076e-05,487.9991,0.010009766,1e-04,-487.9991,0.11968034,0.11260605,0.079803504,0.049148213,inf,inf,inf,inf,inf,1,1,1,1,4,2,3,2,2,1,1,1,0,2,0,0
1777226214865000,1777226214865000,1777225652689000,47.397742,8.5455943,168.55975,-0.042556666,-0.036895752,-31.36856,0.32092425,-487.9991,0.012815691,-0.022964392,-0.021637524,0.0023054779,-4.341242,0.08477419,0.016262472,-0.049490552,-0.021759404,0.002204906,0.0028863738,0.00028044902,-0.01890932,0.0050611896,1.8545072e-05,487.9991,0.010009766,1e-04,-487.9991,0.12008091,0.11285509,0.0801031,0.0492313,inf,inf,inf,inf,inf,1,1,1,1,4,2,3,2,2,1,1,1,0,2,0,0
1777226214873000,1777226214873000,1777225652689000,47.397742,8.5455943,168.55971,-0.042564165,-0.036865234,-31.36856,0.32092425,-487.9991,0.012633347,-0.022887154,-0.02169956,0.0022417298,-4.341242,0.08477419,0.016262472,-0.009859882,-0.008126665,-0.016986856,0.002867258,0.0002805436,-0.018924756,0.0050611896,1.8589104e-05,487.9991,0.010009766,1e-04,-487.9991,0.120484225,0.11310497,0.080402575,0.04931426,inf,inf,inf,inf,inf,1,1,1,1,4,2,3,2,2,1,1,1,0,2,0,0
1777226214881000,1777226214881000,1777225652689000,47.397742,8.5455943,168.55966,-0.042576816,-0.036834717,-31.36856,0.32092425,-487.9991,0.012822339,-0.023125477,-0.02168046,0.00225316,-4.341242,0.08477419,0.016262472,0.036183,-0.047074184,-0.0065458003,0.0028589482,0.00028063828,-0.018929545,0.0050611896,1.8633176e-05,487.9991,0.010009766,1e-04,-487.9991,0.12089028,0.11335568,0.08070207,0.049397092,inf,inf,inf,inf,inf,1,1,1,1,4,2,3,2,2,1,1,1,0,2,0,0
1777226214889000,1777226214889000,1777225652689000,47.397742,8.5455943,168.55963,-0.04259429,-0.036834717,-31.36856,0.32092425,-487.9991,0.013160457,-0.02313451,-0.021525491,0.0023946927,-4.341242,0.08477419,0.016262472,0.054460436,-0.017930677,0.010727438,0.0028655948,0.00028073302,-0.0189195,0.0050611896,1.8677287e-05,487.9991,0.010009766,1e-04,-487.9991,0.121299095,0.11360723,0.081001714,0.049479794,inf,inf,inf,inf,inf,1,1,1,1,4,2,3,2,2,1,1,1,0,2,0,0
1777226214897000,1777226214897000,1777225652689000,47.397742,8.5455943,168.55959,-0.042615343,-0.0368042,-31.36856,0.32092425,-487.9991,0.013149762,-0.023027318,-0.021901255,0.001999948,-4.341242,0.08477419,0.016262472,0.010496645,-0.0029476786,-0.055332664,0.002862796,0.00028005987,-0.018919019,0.0050611896,1.8710329e-05,487.9991,0.010009766,1e-04,-487.9991,0.12170822,0.11385961,0.081292614,0.049562372,inf,inf,inf,inf,inf,1,1,1,1,4,2,3,2,2,1,1,1,0,2,0,0
1777226214905000,1777226214905000,1777225652689000,47.397742,8.5455943,168.55957,-0.042638585,-0.0368042,-31.36856,0.32092425,-487.9991,0.01328418,-0.02276994,-0.02198787,0.0018880229,-4.341242,0.08477419,0.016262472,0.028281689,0.016282536,-0.018895136,0.002810994,0.00028015437,-0.018967591,0.0050611896,1.8754503e-05,487.9991,0.010009766,1e-04,-487.9991,0.1221225,0.11405274,0.08159259,0.04963416,inf,inf,inf,inf,inf,1,1,1,1,4,2,3,2,2,1,1,1,0,2,0,0
1777226214913000,1777226214913000,1777225652689000,47.397742,8.5455943,168.55952,-0.042629812,-0.03677368,-31.36856,0.32092425,-487.9991,0.013227904,-0.02291004,-0.021683337,0.0021996622,-4.341242,0.08477419,0.016262472,0.0062399628,-0.036568575,0.028431414,0.0028103725,0.0002802306,-0.018965095,0.0050611896,1.8519931e-05,487.9991,0.010009766,1e-04,-487.9991,0.11987623,0.1127291,0.0799454,0.049188673,inf,inf,inf,inf,inf,1,1,1,1,4,2,3,2,2,1,1,1,0,2,0,0
1777226214921000,1777226214921000,1777225652689000,47.397742,8.5455943,168.55948,-0.042626973,-0.03677368,-31.36856,0.32092425,-487.9991,0.013206681,-0.023044234,-0.021696553,0.0021871882,-4.341242,0.08477419,0.016262472,0.010060626,-0.035228323,-0.010977498,0.002755857,0.0002802137,-0.019016832,0.0050611896,1.8561921e-05,487.9991,0.010009766,1e-04,-487.9991,0.12027775,0.11297855,0.08024311,0.049271695,inf,inf,inf,inf,inf,1,1,1,1,4,2,3,2,2,1,1,1,0,2,0,0
1777226214929000,1777226214929000,1777225652689000,47.397742,8.5455943,168.55945,-0.042629607,-0.036743164,-31.36856,0.32092425,-487.9991,0.013066655,-0.023245623,-0.021883577,0.0019948087,-4.341242,0.08477419,0.016262472,-0.0051654205,-0.043113016,-0.03240257,0.0026602978,0.00028030813,-0.019110162,0.0050611896,1.8605962e-05,487.9991,0.010009766,1e-04,-487.9991,0.120682366,0.113228835,0.08054303,0.04935459,inf,inf,inf,inf,inf,1,1,1,1,4,2,3,2,2,1,1,1,0,2,0,0
1777226214937000,1777226214937000,1777225652689000,47.397742,8.5455943,168.55942,-0.04263942,-0.036712646,-31.36856,0.32092425,-487.9991,0.013116938,-0.02368082,-0.021999704,0.0018675195,-4.341242,0.08477419,0.016262472,0.018251985,-0.07183908,-0.023248138,0.0025723553,0.00028040263,-0.019195968,0.0050611896,1.865004e-05,487.9991,0.010009766,1e-04,-487.9991,0.121089734,0.11347996,0.080843374,0.04943736,inf,inf,inf,inf,inf,1,1,1,1,4,2,3,2,2,1,1,1,0,2,0,0
1777226214945000,1777226214945000,1777225652689000,47.397742,8.5455943,168.55939,-0.0426558,-0.036712646,-31.36856,0.32092425,-487.9991,0.013145192,-0.023868594,-0.021980505,0.0018699729,-4.341242,0.08477419,0.016262472,0.015136494,-0.040428877,-0.006048474,0.0025665674,0.00028049728,-0.019199716,0.0050611896,1.8694162e-05,487.9991,0.010009766,1e-04,-487.9991,0.12149986,0.11373192,0.081142455,0.04952,inf,inf,inf,inf,inf,1,1,1,1,4,2,3,2,2,1,1,1,0,2,0,0
1777226214953000,1777226214953000,1777225652689000,47.397742,8.5455943,168.55936,-0.04267743,-0.036712646,-31.36856,0.32092425,-487.9991,0.0129821645,-0.023973497,-0.022204433,0.0016238929,-4.341242,0.08477419,0.016262472,-0.0091235265,-0.029597364,-0.03616325,0.0025138762,0.00028059183,-0.019250458,0.0050611896,1.8738314e-05,487.9991,0.010009766,1e-04,-487.9991,0.12191273,0.11398471,0.08144251,0.049602516,inf,inf,inf,inf,inf,1,1,1,1,4,2,3,2,2,1,1,1,0,2,0,0
1777226214961000,1777226214961000,1777225652689000,47.397742,8.5455943,168.55931,-0.042676136,-0.03668213,-31.36856,0.32092425,-487.9991,0.012519506,-0.024018325,-0.022256412,0.0015841469,-4.341242,0.08477419,0.016262472,-0.044948317,-0.024739964,-0.016328411,0.0025082186,0.00028066896,-0.019254256,0.0050611896,1.8505621e-05,487.9991,0.010009766,1e-04,-487.9991,0.119681254,0.11260603,0.079807475,0.049148187,inf,inf,inf,inf,inf,1,1,1,1,4,2,3,2,2,1,1,1,0,2,0,0
1777226214969000,1777226214969000,1777225652689000,47.397742,8.5455943,168.55927,-0.042681407,-0.03665161,-31.36856,0.32092425,-487.9991,0.0124008,-0.024370225,-0.022060111,0.0017862073,-4.341242,0.08477419,0.016262472,-0.0019124417,-0.062565655,0.015022698,0.0024335864,0.00027999576,-0.019327309,0.0050611896,1.8538729e-05,487.9991,0.010009766,1e-04,-487.9991,0.12007962,0.11285508,0.08009744,0.049231272,inf,inf,inf,inf,inf,1,1,1,1,4,2,3,2,2,1,1,1,0,2,0,0
1777226214977000,1777226214977000,1777225652689000,47.397742,8.5455943,168.55923,-0.042693574,-0.036621094,-31.36856,0.32092425,-487.9991,0.012723965,-0.024763215,-0.022211937,0.001633908,-4.341242,0.08477419,0.016262472,0.05294105,-0.067184,-0.028186476,0.0023804072,0.0002800902,-0.019379055,0.0050611896,1.8582756e-05,487.9991,0.010009766,1e-04,-487.9991,0.12048291,0.113104954,0.08039678,0.04931423,inf,inf,inf,inf,inf,1,1,1,1,4,2,3,2,2,1,1,1,0,2,0,0
1777226214985000,1777226214985000,1777225652689000,47.397742,8.5455943,168.55919,-0.042713515,-0.036621094,-31.36856,0.32092425,-487.9991,0.0127203055,-0.025038034,-0.022151548,0.0016878899,-4.341242,0.08477419,0.016262472,0.011715048,-0.05191029,-0.0013620591,0.0023880866,0.0002801847,-0.01937002,0.0050611896,1.8626819e-05,487.9991,0.010009766,1e-04,-487.9991,0.12088893,0.11335567,0.08069778,0.049397063,inf,inf,inf,inf,inf,1,1,1,1,4,2,3,2,2,1,1,1,0,2,0,0
1777226214993000,1777226214993000,1777225652689000,47.397742,8.5455943,168.55916,-0.042735964,-0.036621094,-31.36856,0.32092425,-487.9991,0.012587676,-0.024417352,-0.022386875,0.0014395358,-4.341242,0.08477419,0.016262472,-0.0047698994,0.060518123,-0.03803754,0.0024661035,0.00028027923,-0.019290723,0.0050611896,1.8670922e-05,487.9991,0.010009766,1e-04,-487.9991,0.12129772,0.11360721,0.08099752,0.04947976,inf,inf,inf,inf,inf,1,1,1,1,4,2,3,2,2,1,1,1,0,2,0,0
1777226215001000,1777226215001000,1777225652689000,47.397742,8.5455943,168.55913,-0.042758074,-0.036621094,-31.36856,0.32092425,-487.9991,0.012478782,-0.024047522,-0.023092832,0.0007141661,-4.341242,0.08477419,0.016262472,-0.0021508893,0.02964332,-0.096585594,0.0024569116,0.00028037373,-0.019298762,0.0050611896,1.8715056e-05,487.9991,0.010009766,1e-04,-487.9991,0.12170926,0.113859594,0.08129748,0.049562335,inf,inf,inf,inf,inf,1,1,1,1,4,2,3,2,2,1,1,1,0,2,0,0
1777226215009000,1777226215009000,1777225652689000,47.397742,8.5455943,168.55911,-0.04278448,-0.036621094,-31.36856,0.32092425,-487.9991,0.0124755185,-0.024438476,-0.023025472,0.00075393554,-4.341242,0.08477419,0.016262472,0.01071146,-0.06499052,0.00041071323,0.0024159632,0.00028046832,-0.019338682,0.0050611896,1.8759232e-05,487.9991,0.010009766,1e-04,-487.9991,0.122123554,0.11405272,0.08159735,0.049634125,inf,inf,inf,inf,inf,1,1,1,1,4,2,3,2,2,1,1,1,0,2,0,0
1777226215017000,1777226215017000,1777225652689000,47.397742,8.5455943,168.55907,-0.04279112,-0.036590576,-31.36856,0.32092425,-487.9991,0.012539566,-0.024716757,-0.023301965,0.00048349408,-4.341242,0.08477419,0.016262472,0.020777049,-0.053481504,-0.044205222,0.002338657,0.00028054533,-0.019415084,0.0050611896,1.8524512e-05,487.9991,0.010009766,1e-04,-487.9991,0.11987716,0.11272909,0.07994978,0.049188636,inf,inf,inf,inf,inf,1,1,1,1,4,2,3,2,2,1,1,1,0,2,0,0
1777226215025000,1777226215025000,1777225652689000,47.397742,8.5455943,168.55904,-0.042803116,-0.036590576,-31.36856,0.32092425,-487.9991,0.012549813,-0.024629094,-0.023957115,-0.00017180899,-4.341242,0.08477419,0.016262472,0.013684067,-0.007211066,-0.09122723,0.0023331526,0.00028063994,-0.019419983,0.0050611896,1.8568524e-05,487.9991,0.010009766,1e-04,-487.9991,0.12027907,0.11297853,0.08024909,0.04927166,inf,inf,inf,inf,inf,1,1,1,1,4,2,3,2,2,1,1,1,0,2,0,0
1777226215033000,1777226215033000,1777225652689000,47.397742,8.5455943,168.55899,-0.042817663,-0.036590576,-31.36856,0.32092425,-487.9991,0.012320168,-0.024374748,-0.024392623,-0.000613436,-4.341242,0.08477419,0.016262472,-0.01661162,0.014167298,-0.06347056,0.0023704004,0.00027996727,-0.019382238,0.0050611896,1.8601615e-05,487.9991,0.010009766,1e-04,-487.9991,0.12068141,0.11322882,0.08053932,0.049354557,inf,inf,inf,inf,inf,1,1,1,1,4,2,3,2,2,1,1,1,0,2,0,0
1777226215041000,1777226215041000,1777225652689000,47.397742,8.5455943,168.55896,-0.042834956,-0.036590576,-31.36856,0.32092425,-487.9991,0.012126466,-0.024152167,-0.024513064,-0.00074575667,-4.341242,0.08477419,0.016262472,-0.012472941,0.010687252,-0.023794359,0.0023289318,0.0002800617,-0.019423574,0.0050611896,1.8645698e-05,487.9991,0.010009766,1e-04,-487.9991,0.12108876,0.11347994,0.08083876,0.049437325,inf,inf,inf,inf,inf,1,1,1,1,4,2,3,2,2,1,1,1,0,2,0,0
1777226215049000,1777226215049000,1777225652689000,47.397742,8.5455943,168.55893,-0.042855766,-0.036621094,-31.36856,0.32092425,-487.9991,0.012009095,-0.024236212,-0.02471408,-0.0009641646,-4.341242,0.08477419,0.016262472,-0.0032749083,-0.027161248,-0.03358209,0.0022919085,0.0002801562,-0.019460568,0.0050611896,1.8689818e-05,487.9991,0.010009766,1e-04,-487.9991,0.12149885,0.1137319,0.0811397,0.049519967,inf,inf,inf,inf,inf,1,1,1,1,4,2,3,2,2,1,1,1,0,2,0,0
1777226215057000,1777226215057000,1777225652689000,47.397742,8.5455943,168.55891,-0.04288055,-0.036621094,-31.36856,0.32092425,-487.9991,0.011801516,-0.02408779,-0.024566168,-0.0008398629,-4.341242,0.08477419,0.016262472,-0.01488639,0.002366074,0.01030974,0.0022433996,0.00028025068,-0.019509148,0.0050611896,1.873397e-05,487.9991,0.010009766,1e-04,-487.9991,0.12191172,0.1139847,0.081440225,0.049602482,inf,inf,inf,inf,inf,1,1,1,1,4,2,3,2,2,1,1,1,0,2,0,0
1777226215065000,1777226215065000,1777225652689000,47.397742,8.5455943,168.55885,-0.04288845,-0.036621094,-31.36856,0.32092425,-487.9991,0.011651899,-0.023995496,-0.024471609,-0.00074336736,-4.341242,0.08477419,0.016262472,-0.0054092812,-0.0068501574,0.0022519378,0.0022172572,0.00028032745,-0.019535458,0.0050611896,1.8501414e-05,487.9991,0.010009766,1e-04,-487.9991,0.11968035,0.11260602,0.07980433,0.049148157,inf,inf,inf,inf,inf,1,1,1,1,4,2,3,2,2,1,1,1,0,2,0,0
1777226215073000,1777226215073000,1777225652689000,47.397742,8.5455943,168.5588,-0.042899255,-0.036621094,-31.36856,0.32092425,-487.9991,0.011730027,-0.023664981,-0.024899952,-0.0011758117,-4.341242,0.08477419,0.016262472,0.022674065,0.023441639,-0.0628028,0.0021903773,0.00028042207,-0.019562764,0.0050611896,1.8545412e-05,487.9991,0.010009766,1e-04,-487.9991,0.12008093,0.11285506,0.080103435,0.049231242,inf,inf,inf,inf,inf,1,1,1,1,4,2,3,2,2,1,1,1,0,2,0,0
1777226215081000,1777226215081000,1777225652689000,47.397742,8.5455943,168.55875,-0.042911258,-0.03665161,-31.36856,0.32092425,-487.9991,0.011444085,-0.023310045,-0.024781559,-0.0010673017,-4.341242,0.08477419,0.016262472,-0.023210725,0.026995515,0.0058384608,0.002226503,0.0002805167,-0.019527148,0.0050611896,1.8589448e-05,487.9991,0.010009766,1e-04,-487.9991,0.12048425,0.11310494,0.08040322,0.049314205,inf,inf,inf,inf,inf,1,1,1,1,4,2,3,2,2,1,1,1,0,2,0,0
1777226215089000,1777226215089000,1777225652689000,47.397742,8.5455943,168.5587,-0.042925756,-0.03665161,-31.36856,0.32092425,-487.9991,0.011310057,-0.02319209,-0.024823295,-0.0011244437,-4.341242,0.08477419,0.016262472,-0.00458509,-0.0021447034,-0.01388695,0.002280789,0.00028061136,-0.019473443,0.0050611896,1.8633522e-05,487.9991,0.010009766,1e-04,-487.9991,0.120890304,0.11335565,0.08070318,0.049397033,inf,inf,inf,inf,inf,1,1,1,1,4,2,3,2,2,1,1,1,0,2,0,0
1777226215097000,1777226215097000,1777225652689000,47.397742,8.5455943,168.55867,-0.042942584,-0.03668213,-31.36856,0.32092425,-487.9991,0.011145057,-0.022950863,-0.025112811,-0.0014356398,-4.341242,0.08477419,0.016262472,-0.008810384,0.013738854,-0.044577286,0.0022349008,0.00028070607,-0.019519981,0.0050611896,1.8677632e-05,487.9991,0.010009766,1e-04,-487.9991,0.121299125,0.1136072,0.081003055,0.049479738,inf,inf,inf,inf,inf,1,1,1,1,4,2,3,2,2,1,1,1,0,2,0,0
1777226215105000,1777226215105000,1777225652689000,47.397742,8.5455943,168.55862,-0.0429633,-0.036712646,-31.36856,0.32092425,-487.9991,0.010786976,-0.023217753,-0.025275247,-0.0016257623,-4.341242,0.08477419,0.016262472,-0.033115167,-0.049388252,-0.02841791,0.0022113982,0.00028003316,-0.019544197,0.0050611896,1.8710678e-05,487.9991,0.010009766,1e-04,-487.9991,0.12170825,0.11385958,0.08129421,0.049562316,inf,inf,inf,inf,inf,1,1,1,1,4,2,3,2,2,1,1,1,0,2,0,0
1777226215113000,1777226215113000,1777225652689000,47.397742,8.5455943,168.55858,-0.0429899,-0.036743164,-31.36856,0.32092425,-487.9991,0.01083589,-0.023471821,-0.025523152,-0.0019071035,-4.341242,0.08477419,0.016262472,0.017418088,-0.0473372,-0.038822178,0.002159697,0.00028012754,-0.019596092,0.0050611896,1.8754847e-05,487.9991,0.010009766,1e-04,-487.9991,0.12212253,0.114052705,0.081594564,0.049634103,inf,inf,inf,inf,inf,1,1,1,1,4,2,3,2,2,1,1,1,0,2,0,0
1777226215121000,1777226215121000,1777225652689000,47.397742,8.5455943,168.55852,-0.043006312,-0.03677368,-31.36856,0.32092425,-487.9991,0.010915572,-0.023743011,-0.025433283,-0.0018276435,-4.341242,0.08477419,0.016262472,0.023371335,-0.05187958,0.0020875593,0.002198775,0.00028009294,-0.01955727,0.0050611896,1.8518236e-05,487.9991,0.010009766,1e-04,-487.9991,0.11987589,0.112729065,0.07994542,0.049188618,inf,inf,inf,inf,inf,1,1,1,1,4,2,3,2,2,1,1,1,0,2,0,0
1777226215129000,1777226215129000,1777225652689000,47.397742,8.5455943,168.55846,-0.043026898,-0.03677368,-31.36856,0.32092425,-487.9991,0.011118687,-0.023568457,-0.025065035,-0.001476211,-4.341242,0.08477419,0.016262472,0.03841241,0.0043423814,0.037181187,0.002249633,0.0002801874,-0.019508837,0.0050611896,1.8562245e-05,487.9991,0.010009766,1e-04,-487.9991,0.12027777,0.11297851,0.08024514,0.049271643,inf,inf,inf,inf,inf,1,1,1,1,4,2,3,2,2,1,1,1,0,2,0,0
1777226215137000,1777226215137000,1777225652689000,47.397742,8.5455943,168.5584,-0.04305056,-0.0368042,-31.36856,0.32092425,-487.9991,0.010810823,-0.0235808,-0.024906062,-0.0013402051,-4.341242,0.08477419,0.016262472,-0.025836341,-0.01853042,0.011309049,0.0022759084,0.0002802818,-0.019485038,0.0050611896,1.8606283e-05,487.9991,0.010009766,1e-04,-487.9991,0.120682396,0.1132288,0.080544434,0.049354542,inf,inf,inf,inf,inf,1,1,1,1,4,2,3,2,2,1,1,1,0,2,0,0
1777226215145000,1777226215145000,1777225652689000,47.397742,8.5455943,168.55835,-0.043078333,-0.036834717,-31.36856,0.32092425,-487.9991,0.010866492,-0.02348016,-0.024795834,-0.0012588351,-4.341242,0.08477419,0.016262472,0.019236393,-0.0039342484,0.005494337,0.0023523422,0.00028037626,-0.019411126,0.0050611896,1.865036e-05,487.9991,0.010009766,1e-04,-487.9991,0.12108977,0.11347992,0.08084471,0.049437307,inf,inf,inf,inf,inf,1,1,1,1,4,2,3,2,2,1,1,1,0,2,0,0
1777226215153000,1777226215153000,1777225652689000,47.397742,8.5455943,168.5583,-0.04310828,-0.036865234,-31.36856,0.32092425,-487.9991,0.010853032,-0.023332464,-0.024948824,-0.0014462243,-4.341242,0.08477419,0.016262472,0.010238392,0.0024130174,-0.027137341,0.002305368,0.00028047082,-0.019460673,0.0050611896,1.8694478e-05,487.9991,0.010009766,1e-04,-487.9991,0.121499896,0.11373188,0.081146486,0.049519945,inf,inf,inf,inf,inf,1,1,1,1,4,2,3,2,2,1,1,1,0,2,0,0
1777226215161000,1777226215161000,1777225652689000,47.397742,8.5455943,168.55826,-0.043141566,-0.03692627,-31.36856,0.32092425,-487.9991,0.010742584,-0.023291683,-0.02509722,-0.0016342591,-4.341242,0.08477419,0.016262472,-0.0022296007,-0.010500649,-0.026299616,0.0023063095,0.00028056538,-0.019462341,0.0050611896,1.8738629e-05,487.9991,0.010009766,1e-04,-487.9991,0.12191279,0.113984674,0.0814466,0.04960246,inf,inf,inf,inf,inf,1,1,1,1,4,2,3,2,2,1,1,1,0,2,0,0
1777226215169000,1777226215169000,1777225652689000,47.397742,8.5455943,168.5582,-0.04314073,-0.036956787,-31.36856,0.32092425,-487.9991,0.010726342,-0.02319798,-0.025105217,-0.0016693478,-4.341242,0.08477419,0.016262472,0.011083902,-0.0072689964,-0.009729992,0.0022945355,0.0002798757,-0.019476766,0.0050611896,1.8495031e-05,487.9991,0.010009766,1e-04,-487.9991,0.11967907,0.112606,0.07980277,0.04914814,inf,inf,inf,inf,inf,1,1,1,1,4,2,3,2,2,1,1,1,0,2,0,0
1777226215177000,1777226215177000,1777225652689000,47.397742,8.5455943,168.55814,-0.043143753,-0.036987305,-31.36856,0.32092425,-487.9991,0.010722685,-0.023189655,-0.02509108,-0.0016876701,-4.341242,0.08477419,0.016262472,0.012275951,-0.017407611,-0.006679445,0.0022235757,0.00027997003,-0.019549835,0.0050611896,1.8539018e-05,487.9991,0.010009766,1e-04,-487.9991,0.12007963,0.11285504,0.08010349,0.049231224,inf,inf,inf,inf,inf,1,1,1,1,4,2,3,2,2,1,1,1,0,2,0,0
1777226215185000,1777226215185000,1777225652689000,47.397742,8.5455943,168.55809,-0.043152224,-0.037017822,-31.36856,0.32092425,-487.9991,0.010822976,-0.023468275,-0.025061134,-0.0016951987,-4.341242,0.08477419,0.016262472,0.024899112,-0.052761104,-0.0044279727,0.0022304493,0.00028006436,-0.019545099,0.0050611896,1.8583038e-05,487.9991,0.010009766,1e-04,-487.9991,0.12048294,0.11310492,0.08040382,0.04931418,inf,inf,inf,inf,inf,1,1,1,1,4,2,3,2,2,1,1,1,0,2,0,0
1777226215193000,1777226215193000,1777225652689000,47.397742,8.5455943,168.55803,-0.043166954,-0.037078857,-31.36856,0.32092425,-487.9991,0.010837232,-0.023678934,-0.024839727,-0.0015160098,-4.341242,0.08477419,0.016262472,0.013776603,-0.04376465,0.019771976,0.002269257,0.00028015877,-0.019508453,0.0050611896,1.8627097e-05,487.9991,0.010009766,1e-04,-487.9991,0.12088899,0.11335563,0.08070364,0.049397007,inf,inf,inf,inf,inf,1,1,1,1,4,2,3,2,2,1,1,1,0,2,0,0
1777226215201000,1777226215201000,1777225652689000,47.397742,8.5455943,168.558,-0.04318786,-0.037109375,-31.36856,0.32092425,-487.9991,0.011307619,-0.02394968,-0.024769219,-0.0014922309,-4.341242,0.08477419,0.016262472,0.070437334,-0.050779376,0.0011692754,0.0022953036,0.0002802532,-0.019484585,0.0050611896,1.8671195e-05,487.9991,0.010009766,1e-04,-487.9991,0.12129779,0.113607176,0.08100399,0.049479708,inf,inf,inf,inf,inf,1,1,1,1,4,2,3,2,2,1,1,1,0,2,0,0
1777226215209000,1777226215209000,1777225652689000,47.397742,8.5455943,168.55795,-0.04321336,-0.03717041,-31.36856,0.32092425,-487.9991,0.01169494,-0.02378248,-0.024948541,-0.0017226008,-4.341242,0.08477419,0.016262472,0.05971291,0.0044418657,-0.029807443,0.0023021991,0.00028034777,-0.019479882,0.0050611896,1.8715335e-05,487.9991,0.010009766,1e-04,-487.9991,0.12170936,0.11385956,0.08130366,0.049562287,inf,inf,inf,inf,inf,1,1,1,1,4,2,3,2,2,1,1,1,0,2,0,0
1777226215217000,1777226215217000,1777225652689000,47.397742,8.5455943,168.55792,-0.04324178,-0.037231445,-31.36856,0.32092425,-487.9991,0.011746695,-0.023820648,-0.024727937,-0.0015582074,-4.341242,0.08477419,0.016262472,0.01743104,-0.020757865,0.020451376,0.002353861,0.00028044236,-0.019430421,0.0050611896,1.875951e-05,487.9991,0.010009766,1e-04,-487.9991,0.12212368,0.11405268,0.081603825,0.049634073,inf,inf,inf,inf,inf,1,1,1,1,4,2,3,2,2,1,1,1,0,2,0,0
1777226215225000,1777226215225000,1777225652689000,47.397742,8.5455943,168.55788,-0.04324641,-0.037261963,-31.36856,0.32092425,-487.9991,0.011445322,-0.023931859,-0.024588477,-0.0014532632,-4.341242,0.08477419,0.016262472,-0.024708817,-0.032643802,0.009002629,0.0022968983,0.0002805196,-0.019489594,0.0050611896,1.8524654e-05,487.9991,0.010009766,1e-04,-487.9991,0.11987719,0.11272904,0.079957426,0.049188588,inf,inf,inf,inf,inf,1,1,1,1,4,2,3,2,2,1,1,1,0,2,0,0
1777226215233000,1777226215233000,1777225652689000,47.397742,8.5455943,168.55782,-0.043255303,-0.037322998,-31.36856,0.32092425,-487.9991,0.011136693,-0.023750516,-0.024572069,-0.001476063,-4.341242,0.08477419,0.016262472,-0.025992658,0.0044577597,-0.0061043533,0.0022796835,0.00028061424,-0.019509217,0.0050611896,1.856867e-05,487.9991,0.010009766,1e-04,-487.9991,0.120279126,0.11297849,0.080256246,0.04927161,inf,inf,inf,inf,inf,1,1,1,1,4,2,3,2,2,1,1,1,0,2,0,0
1777226215241000,1777226215241000,1777225652689000,47.397742,8.5455943,168.55777,-0.043265007,-0.037353516,-31.36856,0.32092425,-487.9991,0.010939589,-0.023470324,-0.024621772,-0.0015694846,-4.341242,0.08477419,0.016262472,-0.012077041,0.01697717,-0.014100223,0.0022922382,0.00027994163,-0.019499071,0.0050611896,1.8601753e-05,487.9991,0.010009766,1e-04,-487.9991,0.120681494,0.113228776,0.08054648,0.04935451,inf,inf,inf,inf,inf,1,1,1,1,4,2,3,2,2,1,1,1,0,2,0,0
1777226215249000,1777226215249000,1777225652689000,47.397742,8.5455943,168.55771,-0.043276798,-0.03741455,-31.36856,0.32092425,-487.9991,0.01076186,-0.023287145,-0.024356736,-0.001352452,-4.341242,0.08477419,0.016262472,-0.010023082,0.0053611696,0.025501007,0.0023062215,0.000280036,-0.019484721,0.0050611896,1.8645833e-05,487.9991,0.010009766,1e-04,-487.9991,0.12108887,0.1134799,0.08084687,0.049437277,inf,inf,inf,inf,inf,1,1,1,1,4,2,3,2,2,1,1,1,0,2,0,0
1777226215257000,1777226215257000,1777225652689000,47.397742,8.5455943,168.55766,-0.043292597,-0.037475586,-31.36856,0.32092425,-487.9991,0.010492228,-0.023352675,-0.023803893,-0.00085166114,-4.341242,0.08477419,0.016262472,-0.021871628,-0.025231713,0.061728522,0.002339333,0.00028013048,-0.019451238,0.0050611896,1.8689952e-05,487.9991,0.010009766,1e-04,-487.9991,0.121498995,0.11373185,0.08114712,0.04951992,inf,inf,inf,inf,inf,1,1,1,1,4,2,3,2,2,1,1,1,0,2,0,0
1777226215265000,1777226215265000,1777225652689000,47.397742,8.5455943,168.55762,-0.04331236,-0.037506104,-31.36856,0.32092425,-487.9991,0.010411398,-0.023238242,-0.023458557,-0.0005631805,-4.341242,0.08477419,0.016262472,0.0013790558,-0.0022544053,0.03603473,0.0022723384,0.00028022498,-0.019517854,0.0050611896,1.8734108e-05,487.9991,0.010009766,1e-04,-487.9991,0.121911876,0.11398465,0.08144805,0.049602434,inf,inf,inf,inf,inf,1,1,1,1,4,2,3,2,2,1,1,1,0,2,0,0
1777226215273000,1777226215273000,1777225652689000,47.397742,8.5455943,168.55756,-0.04329975,-0.03753662,-31.36856,0.32092425,-487.9991,0.01007676,-0.023066284,-0.02360935,-0.00075281394,-4.341242,0.08477419,0.016262472,-0.029058645,0.0018556415,-0.027188098,0.0022584933,0.0002803023,-0.019531326,0.0050611896,1.8501414e-05,487.9991,0.010009766,1e-04,-487.9991,0.119680405,0.11260597,0.07981231,0.049148116,inf,inf,inf,inf,inf,1,1,1,1,4,2,3,2,2,1,1,1,0,2,0,0
1777226215281000,1777226215281000,1777225652689000,47.397742,8.5455943,168.5575,-0.043289397,-0.037597656,-31.36856,0.32092425,-487.9991,0.010017845,-0.022775969,-0.023883406,-0.0010700619,-4.341242,0.08477419,0.016262472,0.005036316,0.017199205,-0.04232395,0.0022310268,0.00028039684,-0.019558646,0.0050611896,1.8545408e-05,487.9991,0.010009766,1e-04,-487.9991,0.120081015,0.11285501,0.08011055,0.0492312,inf,inf,inf,inf,inf,1,1,1,1,4,2,3,2,2,1,1,1,0,2,0,0
1777226215289000,1777226215289000,1777225652689000,47.397742,8.5455943,168.55745,-0.04328411,-0.037628174,-31.36856,0.32092425,-487.9991,0.009719923,-0.023021638,-0.023959955,-0.0011940426,-4.341242,0.08477419,0.016262472,-0.025204659,-0.049262464,-0.017371492,0.0022515822,0.00028049145,-0.019537888,0.0050611896,1.8589446e-05,487.9991,0.010009766,1e-04,-487.9991,0.12048435,0.11310489,0.08040938,0.049314164,inf,inf,inf,inf,inf,1,1,1,1,4,2,3,2,2,1,1,1,0,2,0,0
1777226215297000,1777226215297000,1777225652689000,47.397742,8.5455943,168.55739,-0.04328307,-0.03768921,-31.36856,0.32092425,-487.9991,0.009544315,-0.022795746,-0.024275362,-0.0015609788,-4.341242,0.08477419,0.016262472,-0.010270145,0.010198597,-0.04697218,0.0023273914,0.00028058607,-0.019461825,0.0050611896,1.8633516e-05,487.9991,0.010009766,1e-04,-487.9991,0.12089044,0.1133556,0.08070876,0.04939699,inf,inf,inf,inf,inf,1,1,1,1,4,2,3,2,2,1,1,1,0,2,0,0
1777226215305000,1777226215305000,1777225652689000,47.397742,8.5455943,168.55734,-0.04328685,-0.037750244,-31.36856,0.32092425,-487.9991,0.009737148,-0.023021543,-0.024360143,-0.0017012074,-4.341242,0.08477419,0.016262472,0.035566524,-0.045716766,-0.01789443,0.0023893306,0.0002799141,-0.019399578,0.0050611896,1.8666586e-05,487.9991,0.010009766,1e-04,-487.9991,0.12129688,0.113607146,0.08099959,0.049479693,inf,inf,inf,inf,inf,1,1,1,1,4,2,3,2,2,1,1,1,0,2,0,0
1777226215313000,1777226215313000,1777225652689000,47.397742,8.5455943,168.5573,-0.04329611,-0.03781128,-31.36856,0.32092425,-487.9991,0.0098442035,-0.023152152,-0.024497733,-0.0018979633,-4.341242,0.08477419,0.016262472,0.024508946,-0.033324584,-0.024253966,0.0023705417,0.00028000853,-0.019418268,0.0050611896,1.8710725e-05,487.9991,0.010009766,1e-04,-487.9991,0.12170842,0.11385953,0.08130003,0.049562268,inf,inf,inf,inf,inf,1,1,1,1,4,2,3,2,2,1,1,1,0,2,0,0
1777226215321000,1777226215321000,1777225652689000,47.397742,8.5455943,168.55725,-0.04331244,-0.037872314,-31.36856,0.32092425,-487.9991,0.010174118,-0.02374383,-0.024715817,-0.0021797428,-4.341242,0.08477419,0.016262472,0.05190758,-0.09050282,-0.034059394,0.0023867933,0.00027999186,-0.019401858,0.0050611896,1.8752839e-05,487.9991,0.010009766,1e-04,-487.9991,0.12212232,0.11405265,0.08159873,0.049634054,inf,inf,inf,inf,inf,1,1,1,1,4,2,3,2,2,1,1,1,0,2,0,0
1777226215329000,1777226215329000,1777225652689000,47.397742,8.5455943,168.55719,-0.04331523,-0.03793335,-31.36856,0.32092425,-487.9991,0.00998741,-0.023892872,-0.024785792,-0.0022891285,-4.341242,0.08477419,0.016262472,-0.010810894,-0.037454788,-0.016953329,0.0024014292,0.0002800688,-0.01938744,0.0050611896,1.8518183e-05,487.9991,0.010009766,1e-04,-487.9991,0.119876,0.11272902,0.079951465,0.04918857,inf,inf,inf,inf,inf,1,1,1,1,4,2,3,2,2,1,1,1,0,2,0,0
1777226215337000,1777226215337000,1777225652689000,47.397742,8.5455943,168.55713,-0.043323047,-0.037994385,-31.36856,0.32092425,-487.9991,0.009994165,-0.023931848,-0.025101434,-0.0026484455,-4.341242,0.08477419,0.016262472,0.013007607,-0.023169475,-0.04739314,0.0023819623,0.00028016313,-0.019407252,0.0050611896,1.8562185e-05,487.9991,0.010009766,1e-04,-487.9991,0.120277904,0.112978466,0.080250606,0.04927159,inf,inf,inf,inf,inf,1,1,1,1,4,2,3,2,2,1,1,1,0,2,0,0
1777226215345000,1777226215345000,1777225652689000,47.397742,8.5455943,168.55708,-0.04333548,-0.03805542,-31.36856,0.32092425,-487.9991,0.01008598,-0.023973579,-0.02533993,-0.0029347404,-4.341242,0.08477419,0.016262472,0.023283165,-0.023004001,-0.037489455,0.002338984,0.00028025758,-0.01945053,0.0050611896,1.8606226e-05,487.9991,0.010009766,1e-04,-487.9991,0.12068255,0.11322875,0.080549486,0.049354486,inf,inf,inf,inf,inf,1,1,1,1,4,2,3,2,2,1,1,1,0,2,0,0
1777226215353000,1777226215353000,1777225652689000,47.397742,8.5455943,168.55702,-0.04335208,-0.038116455,-31.36856,0.32092425,-487.9991,0.009980875,-0.0238062,-0.025495911,-0.0031425124,-4.341242,0.08477419,0.016262472,-0.0016790435,0.0036396938,-0.026922205,0.002338449,0.00028035216,-0.01945132,0.0050611896,1.8650311e-05,487.9991,0.010009766,1e-04,-487.9991,0.12108994,0.113479875,0.08084923,0.049437255,inf,inf,inf,inf,inf,1,1,1,1,4,2,3,2,2,1,1,1,0,2,0,0
1777226215361000,1777226215361000,1777225652689000,47.397742,8.5455943,168.55698,-0.04337129,-0.03817749,-31.36856,0.32092425,-487.9991,0.009818411,-0.023719242,-0.025435131,-0.0031373315,-4.341242,0.08477419,0.016262472,-0.009185969,-0.0059252237,0.00041862947,0.002338099,0.00028044672,-0.019451879,0.0050611896,1.869443e-05,487.9991,0.010009766,1e-04,-487.9991,0.12150009,0.11373183,0.081149854,0.049519893,inf,inf,inf,inf,inf,1,1,1,1,4,2,3,2,2,1,1,1,0,2,0,0
1777226215369000,1777226215369000,1777225652689000,47.397742,8.5455943,168.55693,-0.04339466,-0.038269043,-31.36856,0.32092425,-487.9991,0.009712257,-0.02377331,-0.02552283,-0.0032842834,-4.341242,0.08477419,0.016262472,-0.0024759064,-0.023077426,-0.017902812,0.0023237818,0.00028054134,-0.019466357,0.0050611896,1.8738585e-05,487.9991,0.010009766,1e-04,-487.9991,0.12191299,0.11398462,0.081449576,0.049602408,inf,inf,inf,inf,inf,1,1,1,1,4,2,3,2,2,1,1,1,0,2,0,0
1777226215377000,1777226215377000,1777225652689000,47.397742,8.5455943,168.55687,-0.04340133,-0.03829956,-31.36856,0.32092425,-487.9991,0.009694396,-0.024232479,-0.025075909,-0.002864522,-4.341242,0.08477419,0.016262472,0.00975358,-0.076320566,0.047269274,0.002276351,0.0002798521,-0.019513905,0.0050611896,1.8494968e-05,487.9991,0.010009766,1e-04,-487.9991,0.11967925,0.11260595,0.07980436,0.049148083,inf,inf,inf,inf,inf,1,1,1,1,4,2,3,2,2,1,1,1,0,2,0,0
1777226215385000,1777226215385000,1777225652689000,47.397742,8.5455943,168.55682,-0.043414637,-0.038330078,-31.36856,0.32092425,-487.9991,0.009548597,-0.024255399,-0.024866173,-0.0026867162,-4.341242,0.08477419,0.016262472,-0.0065836064,-0.021257114,0.017900018,0.002276782,0.00027994654,-0.019512324,0.0050611896,1.8538962e-05,487.9991,0.010009766,1e-04,-487.9991,0.120079815,0.11285499,0.080103196,0.049231168,inf,inf,inf,inf,inf,1,1,1,1,4,2,3,2,2,1,1,1,0,2,0,0
1777226215393000,1777226215393000,1777225652689000,47.397742,8.5455943,168.55676,-0.043431338,-0.038391113,-31.36856,0.32092425,-487.9991,0.009514482,-0.02408643,-0.024713103,-0.002570151,-4.341242,0.08477419,0.016262472,0.0070380187,0.0032451532,0.01108786,0.0022961707,0.000280041,-0.019491732,0.0050611896,1.8582989e-05,487.9991,0.010009766,1e-04,-487.9991,0.12048312,0.113104865,0.08040253,0.049314126,inf,inf,inf,inf,inf,1,1,1,1,4,2,3,2,2,1,1,1,0,2,0,0
1777226215401000,1777226215401000,1777225652689000,47.397742,8.5455943,168.55672,-0.0434514,-0.03845215,-31.36856,0.32092425,-487.9991,0.009608033,-0.024000892,-0.02480237,-0.002700344,-4.341242,0.08477419,0.016262472,0.022664882,-0.006677134,-0.018941237,0.0022601436,0.00028013546,-0.019526504,0.0050611896,1.8627052e-05,487.9991,0.010009766,1e-04,-487.9991,0.12088917,0.11335558,0.080701336,0.04939696,inf,inf,inf,inf,inf,1,1,1,1,4,2,3,2,2,1,1,1,0,2,0,0
1777226215409000,1777226215409000,1777225652689000,47.397742,8.5455943,168.55667,-0.043474384,-0.038513184,-31.36856,0.32092425,-487.9991,0.009584955,-0.023863712,-0.02506981,-0.0030130565,-4.341242,0.08477419,0.016262472,0.007761511,0.00026640372,-0.040957235,0.0021973795,0.0002802299,-0.019588033,0.0050611896,1.8671151e-05,487.9991,0.010009766,1e-04,-487.9991,0.12129797,0.11360712,0.080999635,0.04947966,inf,inf,inf,inf,inf,1,1,1,1,4,2,3,2,2,1,1,1,0,2,0,0
1777226215417000,1777226215417000,1777225652689000,47.397742,8.5455943,168.55664,-0.04350156,-0.03857422,-31.36856,0.32092425,-487.9991,0.009529873,-0.023952603,-0.024966123,-0.002958925,-4.341242,0.08477419,0.016262472,0.0034479888,-0.027517367,0.0056819986,0.0021529922,0.00028032437,-0.019631209,0.0050611896,1.8715285e-05,487.9991,0.010009766,1e-04,-487.9991,0.12170952,0.113859504,0.08129881,0.04956224,inf,inf,inf,inf,inf,1,1,1,1,4,2,3,2,2,1,1,1,0,2,0,0
1777226215425000,1777226215425000,1777225652689000,47.397742,8.5455943,168.5566,-0.04353437,-0.038635254,-31.36856,0.32092425,-487.9991,0.009559354,-0.024329545,-0.024904067,-0.0029485654,-4.341242,0.08477419,0.016262472,0.013708325,-0.06306227,0.0006677582,0.0021257123,0.0002804188,-0.019657297,0.0050611896,1.8759454e-05,487.9991,0.010009766,1e-04,-487.9991,0.12212383,0.11405263,0.08159949,0.049634025,inf,inf,inf,inf,inf,1,1,1,1,4,2,3,2,2,1,1,1,0,2,0,0
1777226215433000,1777226215433000,1777225652689000,47.397742,8.5455943,168.55655,-0.04355132,-0.03866577,-31.36856,0.32092425,-487.9991,0.009779905,-0.024220195,-0.024809118,-0.0028716857,-4.341242,0.08477419,0.016262472,0.03884405,-0.0045811026,0.003105495,0.0021377702,0.00028049652,-0.01964407,0.0050611896,1.8524683e-05,487.9991,0.010009766,1e-04,-487.9991,0.119877376,0.112729,0.07995285,0.04918854,inf,inf,inf,inf,inf,1,1,1,1,4,2,3,2,2,1,1,1,0,2,0,0
1777226215441000,1777226215441000,1777225652689000,47.397742,8.5455943,168.5565,-0.04357019,-0.03869629,-31.36856,0.32092425,-487.9991,0.00969644,-0.023934104,-0.024769131,-0.0028549663,-4.341242,0.08477419,0.016262472,0.00048166836,0.018007549,-0.003480818,0.0021807358,0.00027982486,-0.019600118,0.0050611896,1.8557792e-05,487.9991,0.010009766,1e-04,-487.9991,0.12027704,0.11297844,0.080242895,0.049271565,inf,inf,inf,inf,inf,1,1,1,1,4,2,3,2,2,1,1,1,0,2,0,0
1777226215449000,1777226215449000,1777225652689000,47.397742,8.5455943,168.55646,-0.043593198,-0.038757324,-31.36856,0.32092425,-487.9991,0.009928344,-0.024131766,-0.024998529,-0.003112579,-4.341242,0.08477419,0.016262472,0.03957719,-0.041957498,-0.036878508,0.0022237517,0.00027991924,-0.01955603,0.0050611896,1.8601837e-05,487.9991,0.010009766,1e-04,-487.9991,0.12068165,0.11322873,0.08054302,0.049354464,inf,inf,inf,inf,inf,1,1,1,1,4,2,3,2,2,1,1,1,0,2,0,0
1777226215457000,1777226215457000,1777225652689000,47.397742,8.5455943,168.55643,-0.04362031,-0.03878784,-31.36856,0.32092425,-487.9991,0.009901941,-0.023979208,-0.025023216,-0.0031701825,-4.341242,0.08477419,0.016262472,0.0069732335,0.0023084683,-0.011021736,0.0021421623,0.00028001363,-0.019636568,0.0050611896,1.8645916e-05,487.9991,0.010009766,1e-04,-487.9991,0.12108901,0.113479845,0.080842994,0.049437232,inf,inf,inf,inf,inf,1,1,1,1,4,2,3,2,2,1,1,1,0,2,0,0
1777226215465000,1777226215465000,1777225652689000,47.397742,8.5455943,168.5564,-0.043652847,-0.038848877,-31.36856,0.32092425,-487.9991,0.010013542,-0.02444198,-0.0248289,-0.0030132697,-4.341242,0.08477419,0.016262472,0.023918662,-0.07414029,0.016613862,0.0021084223,0.00028010798,-0.019669272,0.0050611896,1.8690029e-05,487.9991,0.010009766,1e-04,-487.9991,0.12149913,0.1137318,0.08114334,0.049519874,inf,inf,inf,inf,inf,1,1,1,1,4,2,3,2,2,1,1,1,0,2,0,0
1777226215473000,1777226215473000,1777225652689000,47.397742,8.5455943,168.55637,-0.043690976,-0.038909912,-31.36856,0.32092425,-487.9991,0.01000759,-0.024391599,-0.024823265,-0.0030493028,-4.341242,0.08477419,0.016262472,0.008924937,-0.009538575,-0.0067185606,0.0021322449,0.00028020248,-0.019644428,0.0050611896,1.8734185e-05,487.9991,0.010009766,1e-04,-487.9991,0.12191201,0.1139846,0.08144428,0.04960239,inf,inf,inf,inf,inf,1,1,1,1,4,2,3,2,2,1,1,1,0,2,0,0
1777226215481000,1777226215481000,1777225652689000,47.397742,8.5455943,168.55632,-0.043696824,-0.03894043,-31.36856,0.32092425,-487.9991,0.009999091,-0.024583017,-0.02508417,-0.0033122904,-4.341242,0.08477419,0.016262472,0.010412607,-0.042969257,-0.041922085,0.002062377,0.00028028002,-0.019713292,0.0050611896,1.8501552e-05,487.9991,0.010009766,1e-04,-487.9991,0.11968055,0.11260592,0.07980899,0.049148068,inf,inf,inf,inf,inf,1,1,1,1,4,2,3,2,2,1,1,1,0,2,0,0
1777226215489000,1777226215489000,1777225652689000,47.397742,8.5455943,168.55626,-0.04370848,-0.038970947,-31.36856,0.32092425,-487.9991,0.009712996,-0.02473148,-0.025442304,-0.0036780033,-4.341242,0.08477419,0.016262472,-0.02462683,-0.037063982,-0.053776424,0.0020428381,0.00028037466,-0.019732056,0.0050611896,1.8545554e-05,487.9991,0.010009766,1e-04,-487.9991,0.12008116,0.11285496,0.080108866,0.049231157,inf,inf,inf,inf,inf,1,1,1,1,4,2,3,2,2,1,1,1,0,2,0,0
1777226215497000,1777226215497000,1777225652689000,47.397742,8.5455943,168.55621,-0.04372701,-0.039001465,-31.36856,0.32092425,-487.9991,0.009397504,-0.025147302,-0.025439208,-0.0036877003,-4.341242,0.08477419,0.016262472,-0.028633263,-0.06995836,-0.008331611,0.0020628993,0.00028046916,-0.019711224,0.0050611896,1.8589584e-05,487.9991,0.010009766,1e-04,-487.9991,0.12048449,0.113104835,0.080408856,0.049314115,inf,inf,inf,inf,inf,1,1,1,1,4,2,3,2,2,1,1,1,0,2,0,0
1777226215505000,1777226215505000,1777225652689000,47.397742,8.5455943,168.55617,-0.043751985,-0.039031982,-31.36856,0.32092425,-487.9991,0.009153222,-0.02518346,-0.025504144,-0.0037703954,-4.341242,0.08477419,0.016262472,-0.020059988,-0.021990549,-0.016553326,0.0020731634,0.0002805638,-0.019700192,0.0050611896,1.8633658e-05,487.9991,0.010009766,1e-04,-487.9991,0.12089058,0.11335555,0.08070883,0.049396943,inf,inf,inf,inf,inf,1,1,1,1,4,2,3,2,2,1,1,1,0,2,0,0
1777226215513000,1777226215513000,1777225652689000,47.397742,8.5455943,168.55612,-0.04378217,-0.039093018,-31.36856,0.32092425,-487.9991,0.009252652,-0.025240308,-0.025603957,-0.0038927305,-4.341242,0.08477419,0.016262472,0.022796446,-0.023882346,-0.020639038,0.0020484556,0.00027989197,-0.019724136,0.0050611896,1.8666728e-05,487.9991,0.010009766,1e-04,-487.9991,0.12129702,0.11360709,0.080999024,0.049479645,inf,inf,inf,inf,inf,1,1,1,1,4,2,3,2,2,1,1,1,0,2,0,0
1777226215521000,1777226215521000,1777225652689000,47.397742,8.5455943,168.55609,-0.043816917,-0.039123535,-31.36856,0.32092425,-487.9991,0.009206772,-0.025441216,-0.025614416,-0.003930284,-4.341242,0.08477419,0.016262472,0.004376619,-0.041578997,-0.009202863,0.0019686648,0.0002798753,-0.019804625,0.0050611896,1.8708808e-05,487.9991,0.010009766,1e-04,-487.9991,0.12170816,0.113859475,0.08129758,0.049562223,inf,inf,inf,inf,inf,1,1,1,1,4,2,3,2,2,1,1,1,0,2,0,0
1777226215529000,1777226215529000,1777225652689000,47.397742,8.5455943,168.55605,-0.043856997,-0.03918457,-31.36856,0.32092425,-487.9991,0.00877234,-0.025527509,-0.025950395,-0.004296804,-4.341242,0.08477419,0.016262472,-0.044496816,-0.026778197,-0.049657185,0.0019262189,0.00027996968,-0.01984779,0.0050611896,1.8752973e-05,487.9991,0.010009766,1e-04,-487.9991,0.12212246,0.1140526,0.08159679,0.049634013,inf,inf,inf,inf,inf,1,1,1,1,4,2,3,2,2,1,1,1,0,2,0,0
1777226215537000,1777226215537000,1777225652689000,47.397742,8.5455943,168.556,-0.04386474,-0.039215088,-31.36856,0.32092425,-487.9991,0.008757683,-0.02563093,-0.026306992,-0.0046486794,-4.341242,0.08477419,0.016262472,0.009170413,-0.03218618,-0.054000407,0.0019529972,0.00028004692,-0.019821739,0.0050611896,1.8518367e-05,487.9991,0.010009766,1e-04,-487.9991,0.119876154,0.11272897,0.07994907,0.04918853,inf,inf,inf,inf,inf,1,1,1,1,4,2,3,2,2,1,1,1,0,2,0,0
1777226215545000,1777226215545000,1777225652689000,47.397742,8.5455943,168.55595,-0.04387763,-0.039245605,-31.36856,0.32092425,-487.9991,0.008554967,-0.025590522,-0.02633204,-0.0046747653,-4.341242,0.08477419,0.016262472,-0.014667122,-0.013663617,-0.012253876,0.0019854533,0.00028014136,-0.01979028,0.0050611896,1.8562376e-05,487.9991,0.010009766,1e-04,-487.9991,0.120278046,0.11297841,0.08024782,0.04927155,inf,inf,inf,inf,inf,1,1,1,1,4,2,3,2,2,1,1,1,0,2,0,0
1777226215553000,1777226215553000,1777225652689000,47.397742,8.5455943,168.5559,-0.043893762,-0.039276123,-31.36856,0.32092425,-487.9991,0.008389361,-0.025321376,-0.026579335,-0.004928653,-4.341242,0.08477419,0.016262472,-0.010347634,0.015455549,-0.039740928,0.001973186,0.00028023575,-0.019803591,0.0050611896,1.8606414e-05,487.9991,0.010009766,1e-04,-487.9991,0.12068269,0.1132287,0.08054752,0.04935445,inf,inf,inf,inf,inf,1,1,1,1,4,2,3,2,2,1,1,1,0,2,0,0
1777226215561000,1777226215561000,1777225652689000,47.397742,8.5455943,168.55585,-0.04391247,-0.03930664,-31.36856,0.32092425,-487.9991,0.008040893,-0.025021229,-0.02631738,-0.004678589,-4.341242,0.08477419,0.016262472,-0.033520028,0.019846713,0.02420088,0.0019694883,0.00028033022,-0.019808374,0.0050611896,1.8650491e-05,487.9991,0.010009766,1e-04,-487.9991,0.12109008,0.113479815,0.08084791,0.049437214,inf,inf,inf,inf,inf,1,1,1,1,4,2,3,2,2,1,1,1,0,2,0,0
1777226215569000,1777226215569000,1777225652689000,47.397742,8.5455943,168.5558,-0.043932818,-0.039367676,-31.36856,0.32092425,-487.9991,0.007602004,-0.024692697,-0.026247447,-0.004625622,-4.341242,0.08477419,0.016262472,-0.045120787,0.02389986,0.00047544015,0.0019391422,0.00028042472,-0.019839851,0.0050611896,1.8694605e-05,487.9991,0.010009766,1e-04,-487.9991,0.12150022,0.11373177,0.0811476,0.049519856,inf,inf,inf,inf,inf,1,1,1,1,4,2,3,2,2,1,1,1,0,2,0,0
1777226215577000,1777226215577000,1777225652689000,47.397742,8.5455943,168.55576,-0.043956023,-0.03942871,-31.36856,0.32092425,-487.9991,0.007258877,-0.02468724,-0.026506787,-0.0049068313,-4.341242,0.08477419,0.016262472,-0.033525225,-0.016016558,-0.040414274,0.0019226674,0.000279754,-0.019857502,0.0050611896,1.8727646e-05,487.9991,0.010009766,1e-04,-487.9991,0.12191065,0.11398457,0.08143812,0.04960237,inf,inf,inf,inf,inf,1,1,1,1,4,2,3,2,2,1,1,1,0,2,0,0
1777226215585000,1777226215585000,1777225652689000,47.397742,8.5455943,168.5557,-0.043940634,-0.03942871,-31.36856,0.32092425,-487.9991,0.0069173477,-0.024729775,-0.026619555,-0.0050145695,-4.341242,0.08477419,0.016262472,-0.032077674,-0.025568508,-0.023589933,0.0019285346,0.00027983115,-0.019852728,0.0050611896,1.8495222e-05,487.9991,0.010009766,1e-04,-487.9991,0.11967938,0.11260589,0.079802915,0.04914805,inf,inf,inf,inf,inf,1,1,1,1,4,2,3,2,2,1,1,1,0,2,0,0
1777226215593000,1777226215593000,1777225652689000,47.397742,8.5455943,168.55565,-0.04392947,-0.039489746,-31.36856,0.32092425,-487.9991,0.0069652046,-0.024475485,-0.02665163,-0.005047388,-4.341242,0.08477419,0.016262472,0.016272387,0.012106884,-0.013198703,0.001968779,0.00027992553,-0.019813867,0.0050611896,1.8539213e-05,487.9991,0.010009766,1e-04,-487.9991,0.12007994,0.11285493,0.08010179,0.049231134,inf,inf,inf,inf,inf,1,1,1,1,4,2,3,2,2,1,1,1,0,2,0,0
1777226215601000,1777226215601000,1777225652689000,47.397742,8.5455943,168.55559,-0.04392209,-0.039520264,-31.36856,0.32092425,-487.9991,0.0070184693,-0.024440624,-0.026287926,-0.00468996,-4.341242,0.08477419,0.016262472,0.016638499,-0.0147613585,0.036569774,0.0020250115,0.00028001994,-0.019759057,0.0050611896,1.858324e-05,487.9991,0.010009766,1e-04,-487.9991,0.12048324,0.113104805,0.08040176,0.049314093,inf,inf,inf,inf,inf,1,1,1,1,4,2,3,2,2,1,1,1,0,2,0,0
1777226215609000,1777226215609000,1777225652689000,47.397742,8.5455943,168.55554,-0.04392115,-0.03955078,-31.36856,0.32092425,-487.9991,0.0072417567,-0.024896678,-0.026030561,-0.0044441605,-4.341242,0.08477419,0.016262472,0.03759241,-0.07558509,0.023564788,0.0020353573,0.0002801144,-0.019750176,0.0050611896,1.8627303e-05,487.9991,0.010009766,1e-04,-487.9991,0.1208893,0.11335551,0.08070138,0.04939692,inf,inf,inf,inf,inf,1,1,1,1,4,2,3,2,2,1,1,1,0,2,0,0
1777226215617000,1777226215617000,1777225652689000,47.397742,8.5455943,168.5555,-0.043928288,-0.039611816,-31.36856,0.32092425,-487.9991,0.0072896057,-0.02509942,-0.026250826,-0.0046811025,-4.341242,0.08477419,0.016262472,0.015366778,-0.04339854,-0.03585964,0.00207034,0.0002802089,-0.019716699,0.0050611896,1.8671406e-05,487.9991,0.010009766,1e-04,-487.9991,0.1212981,0.113607064,0.081000775,0.049479626,inf,inf,inf,inf,inf,1,1,1,1,4,2,3,2,2,1,1,1,0,2,0,0
1777226215625000,1777226215625000,1777225652689000,47.397742,8.5455943,168.55545,-0.043940485,-0.039642334,-31.36856,0.32092425,-487.9991,0.0072035664,-0.024986112,-0.026492191,-0.0049440833,-4.341242,0.08477419,0.016262472,-0.0016570701,-0.0033826025,-0.03822613,0.0020060863,0.00028030341,-0.019782495,0.0050611896,1.8715544e-05,487.9991,0.010009766,1e-04,-487.9991,0.12170965,0.113859445,0.08130087,0.0495622,inf,inf,inf,inf,inf,1,1,1,1,4,2,3,2,2,1,1,1,0,2,0,0
1777226215633000,1777226215633000,1777225652689000,47.397742,8.5455943,168.5554,-0.043956336,-0.03970337,-31.36856,0.32092425,-487.9991,0.0070787696,-0.02496941,-0.026516147,-0.0049943635,-4.341242,0.08477419,0.016262472,-0.00677898,-0.014959339,-0.010792631,0.0020186736,0.00028039792,-0.019771488,0.0050611896,1.8759718e-05,487.9991,0.010009766,1e-04,-487.9991,0.12212397,0.11405257,0.08160199,0.049633987,inf,inf,inf,inf,inf,1,1,1,1,4,2,3,2,2,1,1,1,0,2,0,0
1777226215641000,1777226215641000,1777225652689000,47.397742,8.5455943,168.55536,-0.043940686,-0.039733887,-31.36856,0.32092425,-487.9991,0.006745168,-0.025107883,-0.026682343,-0.0051606856,-4.341242,0.08477419,0.016262472,-0.031594638,-0.037587885,-0.03006309,0.0020441308,0.00028047562,-0.019747652,0.0050611896,1.8524903e-05,487.9991,0.010009766,1e-04,-487.9991,0.11987747,0.112728946,0.07995536,0.049188506,inf,inf,inf,inf,inf,1,1,1,1,4,2,3,2,2,1,1,1,0,2,0,0
1777226215649000,1777226215649000,1777225652689000,47.397742,8.5455943,168.5553,-0.04393002,-0.039794922,-31.36856,0.32092425,-487.9991,0.006498008,-0.024904566,-0.026724074,-0.005207942,-4.341242,0.08477419,0.016262472,-0.020498438,0.0056895604,-0.014205462,0.0020739755,0.00027980414,-0.019719686,0.0050611896,1.855801e-05,487.9991,0.010009766,1e-04,-487.9991,0.120277144,0.11297839,0.080245204,0.04927153,inf,inf,inf,inf,inf,1,1,1,1,4,2,3,2,2,1,1,1,0,2,0,0
1777226215657000,1777226215657000,1777225652689000,47.397742,8.5455943,168.55525,-0.043922182,-0.03982544,-31.36856,0.32092425,-487.9991,0.0065143416,-0.024554875,-0.026645396,-0.005139974,-4.341242,0.08477419,0.016262472,0.012127347,0.024551433,0.0011357478,0.002117535,0.00027989846,-0.019677686,0.0050611896,1.8602053e-05,487.9991,0.010009766,1e-04,-487.9991,0.12068177,0.11322867,0.08054468,0.049354427,inf,inf,inf,inf,inf,1,1,1,1,4,2,3,2,2,1,1,1,0,2,0,0
1777226215665000,1777226215665000,1777225652689000,47.397742,8.5455943,168.55519,-0.043917336,-0.039886475,-31.36856,0.32092425,-487.9991,0.0064461865,-0.024461143,-0.026738891,-0.005249143,-4.341242,0.08477419,0.016262472,0.0012711097,-0.0068978285,-0.020103993,0.0020951624,0.00027999285,-0.01970165,0.0050611896,1.8646133e-05,487.9991,0.010009766,1e-04,-487.9991,0.12108914,0.11347979,0.08084466,0.049437195,inf,inf,inf,inf,inf,1,1,1,1,4,2,3,2,2,1,1,1,0,2,0,0
1777226215673000,1777226215673000,1777225652689000,47.397742,8.5455943,168.55515,-0.043918658,-0.039916992,-31.36856,0.32092425,-487.9991,0.0061147464,-0.024852352,-0.026425125,-0.00495581,-4.341242,0.08477419,0.016262472,-0.03192939,-0.06699067,0.031077301,0.0021069704,0.00028008738,-0.019691465,0.0050611896,1.8690256e-05,487.9991,0.010009766,1e-04,-487.9991,0.12149926,0.11373175,0.08114463,0.049519833,inf,inf,inf,inf,inf,1,1,1,1,4,2,3,2,2,1,1,1,0,2,0,0
1777226215681000,1777226215681000,1777225652689000,47.397742,8.5455943,168.5551,-0.043929156,-0.039978027,-31.36856,0.32092425,-487.9991,0.0058600605,-0.025442727,-0.026355302,-0.0049119266,-4.341242,0.08477419,0.016262472,-0.022616353,-0.091368675,0.0008498318,0.0021069893,0.00028018188,-0.019693062,0.0050611896,1.8734412e-05,487.9991,0.010009766,1e-04,-487.9991,0.121912144,0.11398454,0.08144556,0.04960235,inf,inf,inf,inf,inf,1,1,1,1,4,2,3,2,2,1,1,1,0,2,0,0
1777226215689000,1777226215689000,1777225652689000,47.397742,8.5455943,168.55504,-0.043910224,-0.040008545,-31.36856,0.32092425,-487.9991,0.005780424,-0.02570976,-0.02630387,-0.0048499736,-4.341242,0.08477419,0.016262472,0.00038108553,-0.05426459,-0.003293622,0.0021014737,0.00028025973,-0.019700184,0.0050611896,1.850175e-05,487.9991,0.010009766,1e-04,-487.9991,0.119680665,0.11260587,0.079811,0.04914803,inf,inf,inf,inf,inf,1,1,1,1,4,2,3,2,2,1,1,1,0,2,0,0
1777226215697000,1777226215697000,1777225652689000,47.397742,8.5455943,168.55498,-0.043897796,-0.040039062,-31.36856,0.32092425,-487.9991,0.005333287,-0.025687428,-0.026070345,-0.004612458,-4.341242,0.08477419,0.016262472,-0.045859296,-0.017503096,0.019779427,0.0021475342,0.00028035423,-0.019655956,0.0050611896,1.8545747e-05,487.9991,0.010009766,1e-04,-487.9991,0.12008127,0.112854905,0.08011006,0.049231116,inf,inf,inf,inf,inf,1,1,1,1,4,2,3,2,2,1,1,1,0,2,0,0
1777226215705000,1777226215705000,1777225652689000,47.397742,8.5455943,168.55492,-0.043890264,-0.04006958,-31.36856,0.32092425,-487.9991,0.00559248,-0.025585342,-0.02587073,-0.004415106,-4.341242,0.08477419,0.016262472,0.042137034,-0.0069568027,0.015842726,0.002173359,0.0002804488,-0.019631948,0.0050611896,1.858978e-05,487.9991,0.010009766,1e-04,-487.9991,0.12048461,0.113104776,0.08040998,0.04931407,inf,inf,inf,inf,inf,1,1,1,1,4,2,3,2,2,1,1,1,0,2,0,0
1777226215713000,1777226215713000,1777225652689000,47.397742,8.5455943,168.55487,-0.043887027,-0.040100098,-31.36856,0.32092425,-487.9991,0.0057256604,-0.02563736,-0.025657952,-0.0042106146,-4.341242,0.08477419,0.016262472,0.026117776,-0.025755692,0.017781274,0.0022075882,0.00027977783,-0.019599522,0.0050611896,1.8622875e-05,487.9991,0.010009766,1e-04,-487.9991,0.12088836,0.11335549,0.0806994,0.0493969,inf,inf,inf,inf,inf,1,1,1,1,4,2,3,2,2,1,1,1,0,2,0,0
1777226215721000,1777226215721000,1777225652689000,47.397742,8.5455943,168.55482,-0.043890834,-0.040130615,-31.36856,0.32092425,-487.9991,0.0059926044,-0.026045097,-0.025548032,-0.004114814,-4.341242,0.08477419,0.016262472,0.042585146,-0.06961323,0.0052088867,0.002182458,0.0002797613,-0.019625733,0.0050611896,1.866493e-05,487.9991,0.010009766,1e-04,-487.9991,0.121296756,0.113607034,0.080997154,0.0494796,inf,inf,inf,inf,inf,1,1,1,1,4,2,3,2,2,1,1,1,0,2,0,0
1777226215729000,1777226215729000,1777225652689000,47.397742,8.5455943,168.55478,-0.043902628,-0.04019165,-31.36856,0.32092425,-487.9991,0.006008236,-0.026259173,-0.02498858,-0.0035750717,-4.341242,0.08477419,0.016262472,0.010895179,-0.044878397,0.061676834,0.0021488264,0.00027985562,-0.019661495,0.0050611896,1.870906e-05,487.9991,0.010009766,1e-04,-487.9991,0.12170829,0.11385942,0.08129776,0.04956218,inf,inf,inf,inf,inf,1,1,1,1,4,2,3,2,2,1,1,1,0,2,0,0
1777226215737000,1777226215737000,1777225652689000,47.397742,8.5455943,168.55473,-0.043920852,-0.040222168,-31.36856,0.32092425,-487.9991,0.0058120596,-0.026510369,-0.024600616,-0.0032121358,-4.341242,0.08477419,0.016262472,-0.015847748,-0.049001146,0.040503215,0.002105635,0.00027995,-0.019706799,0.0050611896,1.8753228e-05,487.9991,0.010009766,1e-04,-487.9991,0.122122586,0.11405254,0.08159831,0.04963397,inf,inf,inf,inf,inf,1,1,1,1,4,2,3,2,2,1,1,1,0,2,0,0
1777226215745000,1777226215745000,1777225652689000,47.397742,8.5455943,168.55467,-0.04390931,-0.040222168,-31.36856,0.32092425,-487.9991,0.0055057695,-0.026720487,-0.024486823,-0.0030807822,-4.341242,0.08477419,0.016262472,-0.028175358,-0.047021933,0.004178844,0.0019857474,0.00028002777,-0.01982878,0.0050611896,1.8518575e-05,487.9991,0.010009766,1e-04,-487.9991,0.11987625,0.112728916,0.07995119,0.049188487,inf,inf,inf,inf,inf,1,1,1,1,4,2,3,2,2,1,1,1,0,2,0,0
1777226215753000,1777226215753000,1777225652689000,47.397742,8.5455943,168.55461,-0.04390586,-0.040222168,-31.36856,0.32092425,-487.9991,0.0050436393,-0.027044933,-0.024591038,-0.0031741853,-4.341242,0.08477419,0.016262472,-0.047956184,-0.060718592,-0.022751743,0.002037574,0.0002801221,-0.019779244,0.0050611896,1.8562576e-05,487.9991,0.010009766,1e-04,-487.9991,0.12027816,0.11297837,0.08024945,0.04927151,inf,inf,inf,inf,inf,1,1,1,1,4,2,3,2,2,1,1,1,0,2,0,0
1777226215761000,1777226215761000,1777225652689000,47.397742,8.5455943,168.55453,-0.043908224,-0.040252686,-31.36856,0.32092425,-487.9991,0.0046534045,-0.026811698,-0.024912456,-0.0034913698,-4.341242,0.08477419,0.016262472,-0.039266232,0.009572947,-0.049590595,0.0021064505,0.0002802165,-0.019712634,0.0050611896,1.8606617e-05,487.9991,0.010009766,1e-04,-487.9991,0.1206828,0.11322865,0.08054834,0.049354408,inf,inf,inf,inf,inf,1,1,1,1,4,2,3,2,2,1,1,1,0,2,0,0
1777226215769000,1777226215769000,1777225652689000,47.397742,8.5455943,168.55447,-0.043912835,-0.040283203,-31.36856,0.32092425,-487.9991,0.0043908423,-0.026448576,-0.024892488,-0.0034735089,-4.341242,0.08477419,0.016262472,-0.023592437,0.026362,-0.006615184,0.0021186364,0.00028031095,-0.019702688,0.0050611896,1.8650695e-05,487.9991,0.010009766,1e-04,-487.9991,0.12109019,0.11347977,0.08084865,0.049437173,inf,inf,inf,inf,inf,1,1,1,1,4,2,3,2,2,1,1,1,0,2,0,0
1777226215777000,1777226215777000,1777225652689000,47.397742,8.5455943,168.55441,-0.043921392,-0.04031372,-31.36856,0.32092425,-487.9991,0.0045365365,-0.026460016,-0.024990844,-0.0035800133,-4.341242,0.08477419,0.016262472,0.027155327,-0.019916356,-0.02111215,0.002149975,0.0002804055,-0.019673562,0.0050611896,1.8694815e-05,487.9991,0.010009766,1e-04,-487.9991,0.121500336,0.11373172,0.08114924,0.049519815,inf,inf,inf,inf,inf,1,1,1,1,4,2,3,2,2,1,1,1,0,2,0,0
1777226215785000,1777226215785000,1777225652689000,47.397742,8.5455943,168.55435,-0.043936025,-0.04034424,-31.36856,0.32092425,-487.9991,0.0044120164,-0.026679244,-0.025549732,-0.0041528316,-4.341242,0.08477419,0.016262472,-0.007019058,-0.045326985,-0.07839407,0.0021409236,0.00027973508,-0.019684795,0.0050611896,1.872786e-05,487.9991,0.010009766,1e-04,-487.9991,0.121910766,0.11398452,0.081439905,0.04960233,inf,inf,inf,inf,inf,1,1,1,1,4,2,3,2,2,1,1,1,0,2,0,0
1777226215793000,1777226215793000,1777225652689000,47.397742,8.5455943,168.55429,-0.043921087,-0.04034424,-31.36856,0.32092425,-487.9991,0.0043134326,-0.026844524,-0.02589357,-0.0044634314,-4.341242,0.08477419,0.016262472,-0.0029283399,-0.04179245,-0.0537266,0.002190832,0.00027981278,-0.019637419,0.0050611896,1.8495391e-05,487.9991,0.010009766,1e-04,-487.9991,0.119679466,0.11260585,0.07980504,0.04914801,inf,inf,inf,inf,inf,1,1,1,1,4,2,3,2,2,1,1,1,0,2,0,0
1777226215801000,1777226215801000,1777225652689000,47.397742,8.5455943,168.55423,-0.04391082,-0.04034424,-31.36856,0.32092425,-487.9991,0.0040364144,-0.026579821,-0.025676433,-0.0042203483,-4.341242,0.08477419,0.016262472,-0.02552218,0.012550288,0.016735865,0.0021801917,0.0002799071,-0.019650787,0.0050611896,1.853938e-05,487.9991,0.010009766,1e-04,-487.9991,0.12008003,0.11285488,0.080104075,0.049231097,inf,inf,inf,inf,inf,1,1,1,1,4,2,3,2,2,1,1,1,0,2,0,0
1777226215809000,1777226215809000,1777225652689000,47.397742,8.5455943,168.55417,-0.0439051,-0.04034424,-31.36856,0.32092425,-487.9991,0.003858881,-0.026564874,-0.025688373,-0.004213374,-4.341242,0.08477419,0.016262472,-0.013361277,-0.018084753,-0.011567957,0.0021460194,0.00028000152,-0.019687649,0.0050611896,1.8583407e-05,487.9991,0.010009766,1e-04,-487.9991,0.12048335,0.11310475,0.08040317,0.049314052,inf,inf,inf,inf,inf,1,1,1,1,4,2,3,2,2,1,1,1,0,2,0,0
1777226215817000,1777226215817000,1777225652689000,47.397742,8.5455943,168.55411,-0.04390548,-0.04034424,-31.36856,0.32092425,-487.9991,0.0038299162,-0.026781978,-0.025587767,-0.00410063,-4.341242,0.08477419,0.016262472,0.004946807,-0.04652187,0.0028214415,0.0021598628,0.00028009585,-0.019676466,0.0050611896,1.8627465e-05,487.9991,0.010009766,1e-04,-487.9991,0.120889395,0.113355465,0.08070296,0.049396884,inf,inf,inf,inf,inf,1,1,1,1,4,2,3,2,2,1,1,1,0,2,0,0
1777226215825000,1777226215825000,1777225652689000,47.397742,8.5455943,168.55405,-0.043911744,-0.040374756,-31.36856,0.32092425,-487.9991,0.0037905686,-0.026670108,-0.025653731,-0.0041610105,-4.341242,0.08477419,0.016262472,0.003394365,-0.004847347,-0.017687676,0.002256842,0.00028019035,-0.019582115,0.0050611896,1.8671566e-05,487.9991,0.010009766,1e-04,-487.9991,0.1212982,0.11360702,0.08100186,0.04947959,inf,inf,inf,inf,inf,1,1,1,1,4,2,3,2,2,1,1,1,0,2,0,0
1777226215833000,1777226215833000,1777225652689000,47.397742,8.5455943,168.55399,-0.043923017,-0.040405273,-31.36856,0.32092425,-487.9991,0.0038024043,-0.026770044,-0.025629086,-0.0041371435,-4.341242,0.08477419,0.016262472,0.00954204,-0.03079129,-0.006058253,0.002318445,0.00028028488,-0.019523112,0.0050611896,1.8715707e-05,487.9991,0.010009766,1e-04,-487.9991,0.121709764,0.1138594,0.08130171,0.049562164,inf,inf,inf,inf,inf,1,1,1,1,4,2,3,2,2,1,1,1,0,2,0,0
1777226215841000,1777226215841000,1777225652689000,47.397742,8.5455943,168.55394,-0.043941088,-0.04043579,-31.36856,0.32092425,-487.9991,0.0040368163,-0.027219225,-0.025450556,-0.0039645364,-4.341242,0.08477419,0.016262472,0.037112765,-0.07392796,0.013449228,0.0023439047,0.00028037938,-0.019500222,0.0050611896,1.8759882e-05,487.9991,0.010009766,1e-04,-487.9991,0.12212408,0.11405252,0.08160201,0.049633954,inf,inf,inf,inf,inf,1,1,1,1,4,2,3,2,2,1,1,1,0,2,0,0
1777226215849000,1777226215849000,1777225652689000,47.397742,8.5455943,168.55386,-0.043923255,-0.040405273,-31.36856,0.32092425,-487.9991,0.004340424,-0.027486622,-0.025836585,-0.0043077907,-4.341242,0.08477419,0.016262472,0.047005966,-0.054884333,-0.05934806,0.0023532743,0.00028045793,-0.01949339,0.0050611896,1.852508e-05,487.9991,0.010009766,1e-04,-487.9991,0.11987761,0.1127289,0.07995385,0.049188472,inf,inf,inf,inf,inf,1,1,1,1,4,2,3,2,2,1,1,1,0,2,0,0
1777226215857000,1777226215857000,1777225652689000,47.397742,8.5455943,168.5538,-0.04391313,-0.040405273,-31.36856,0.32092425,-487.9991,0.0042101224,-0.027763065,-0.025678093,-0.0041134213,-4.341242,0.08477419,0.016262472,-0.007502487,-0.055410855,0.009067821,0.0023521318,0.00028055254,-0.019497285,0.0050611896,1.8569099e-05,487.9991,0.010009766,1e-04,-487.9991,0.12027953,0.11297835,0.08025266,0.049271494,inf,inf,inf,inf,inf,1,1,1,1,4,2,3,2,2,1,1,1,0,2,0,0
1777226215865000,1777226215865000,1777225652689000,47.397742,8.5455943,168.55374,-0.04391075,-0.040405273,-31.36856,0.32092425,-487.9991,0.00424757,-0.027936867,-0.025790429,-0.004196582,-4.341242,0.08477419,0.016262472,0.0131995175,-0.041991357,-0.024444887,0.002402064,0.00028064716,-0.019450068,0.0050611896,1.8613151e-05,487.9991,0.010009766,1e-04,-487.9991,0.1206842,0.11322863,0.08055167,0.04935439,inf,inf,inf,inf,inf,1,1,1,1,4,2,3,2,2,1,1,1,0,2,0,0
1777226215873000,1777226215873000,1777225652689000,47.397742,8.5455943,168.55368,-0.0439144,-0.040405273,-31.36856,0.32092425,-487.9991,0.004124535,-0.02794126,-0.025891336,-0.004274815,-4.341242,0.08477419,0.016262472,-0.007121125,-0.020240037,-0.022685153,0.0023825506,0.0002807418,-0.019472262,0.0050611896,1.865724e-05,487.9991,0.010009766,1e-04,-487.9991,0.12109161,0.11347975,0.080851264,0.049437158,inf,inf,inf,inf,inf,1,1,1,1,4,2,3,2,2,1,1,1,0,2,0,0
1777226215881000,1777226215881000,1777225652689000,47.397742,8.5455943,168.55362,-0.043923,-0.040405273,-31.36856,0.32092425,-487.9991,0.0038619803,-0.027743403,-0.025735999,-0.0041031544,-4.341242,0.08477419,0.016262472,-0.024813779,0.0055954037,0.009666662,0.002368608,0.0002808366,-0.019488871,0.0050611896,1.8701372e-05,487.9991,0.010009766,1e-04,-487.9991,0.12150177,0.113731705,0.081149876,0.0495198,inf,inf,inf,inf,inf,1,1,1,1,4,2,3,2,2,1,1,1,0,2,0,0
1777226215889000,1777226215889000,1777225652689000,47.397742,8.5455943,168.55356,-0.043935463,-0.04043579,-31.36856,0.32092425,-487.9991,0.0035868343,-0.027609425,-0.025674535,-0.0040316074,-4.341242,0.08477419,0.016262472,-0.026631923,-0.001843904,-0.0017555429,0.0024367722,0.00028093127,-0.019423326,0.0050611896,1.8745532e-05,487.9991,0.010009766,1e-04,-487.9991,0.12191469,0.11398449,0.081449114,0.049602315,inf,inf,inf,inf,inf,1,1,1,1,4,2,3,2,2,1,1,1,0,2,0,0
1777226215897000,1777226215897000,1777225652689000,47.397742,8.5455943,168.55348,-0.04390629,-0.040405273,-31.36856,0.32092425,-487.9991,0.0033925737,-0.027303442,-0.02588411,-0.0041955463,-4.341242,0.08477419,0.016262472,-0.015269353,0.015918829,-0.037388872,0.0025336498,0.00028101055,-0.019329026,0.0050611896,1.8512652e-05,487.9991,0.010009766,1e-04,-487.9991,0.119683,0.112605825,0.07981309,0.049147993,inf,inf,inf,inf,inf,1,1,1,1,4,2,3,2,2,1,1,1,0,2,0,0
1777226215905000,1777226215905000,1777225652689000,47.397742,8.5455943,168.55342,-0.04388334,-0.040405273,-31.36856,0.32092425,-487.9991,0.0035511218,-0.027543182,-0.025696417,-0.0039696423,-4.341242,0.08477419,0.016262472,0.02855979,-0.051664043,0.012623611,0.002543161,0.00028110534,-0.019322298,0.0050611896,1.8556657e-05,487.9991,0.010009766,1e-04,-487.9991,0.12008363,0.11285486,0.080112346,0.04923108,inf,inf,inf,inf,inf,1,1,1,1,4,2,3,2,2,1,1,1,0,2,0,0
1777226215913000,1777226215913000,1777225652689000,47.397742,8.5455943,168.55334,-0.04386787,-0.040405273,-31.36856,0.32092425,-487.9991,0.0033972082,-0.027694428,-0.025640782,-0.0038829017,-4.341242,0.08477419,0.016262472,-0.010761592,-0.039985925,-0.0035404225,0.002546206,0.00028120022,-0.01932199,0.0050611896,1.8600704e-05,487.9991,0.010009766,1e-04,-487.9991,0.120487,0.11310473,0.08041245,0.049314037,inf,inf,inf,inf,inf,1,1,1,1,4,2,3,2,2,1,1,1,0,2,0,0
1777226215921000,1777226215921000,1777225652689000,47.397742,8.5455943,168.55327,-0.04385792,-0.040405273,-31.36856,0.32092425,-487.9991,0.0028182524,-0.027778588,-0.025347078,-0.0035649035,-4.341242,0.08477419,0.016262472,-0.06415079,-0.03130164,0.026552005,0.0025548113,0.00028041174,-0.019316072,0.0050611896,1.8631723e-05,487.9991,0.010009766,1e-04,-487.9991,0.12089039,0.11335544,0.08070087,0.04939687,inf,inf,inf,inf,inf,1,1,1,1,4,2,3,2,2,1,1,1,0,2,0,0
1777226215929000,1777226215929000,1777225652689000,47.397742,8.5455943,168.5532,-0.043852907,-0.040405273,-31.36856,0.32092425,-487.9991,0.0022756136,-0.027489375,-0.02502718,-0.0032272635,-4.341242,0.08477419,0.016262472,-0.05986796,0.015959563,0.03015017,0.0024856029,0.0002805063,-0.019385895,0.0050611896,1.8675824e-05,487.9991,0.010009766,1e-04,-487.9991,0.12129919,0.11360699,0.08100106,0.04947957,inf,inf,inf,inf,inf,1,1,1,1,4,2,3,2,2,1,1,1,0,2,0,0
1777226215937000,1777226215937000,1777225652689000,47.397742,8.5455943,168.55313,-0.043852013,-0.040405273,-31.36856,0.32092425,-487.9991,0.0021140792,-0.027470322,-0.024817504,-0.0030060739,-4.341242,0.08477419,0.016262472,-0.012474614,-0.017238533,0.01668697,0.0024483448,0.0002806009,-0.019423721,0.0050611896,1.8719964e-05,487.9991,0.010009766,1e-04,-487.9991,0.12171076,0.11385938,0.08130262,0.049562145,inf,inf,inf,inf,inf,1,1,1,1,4,2,3,2,2,1,1,1,0,2,0,0
1777226215945000,1777226215945000,1777225652689000,47.397742,8.5455943,168.55307,-0.043856427,-0.040405273,-31.36856,0.32092425,-487.9991,0.0025473246,-0.027371421,-0.024980867,-0.0031648104,-4.341242,0.08477419,0.016262472,0.061634358,-0.0067015314,-0.02959836,0.0024866676,0.00028069556,-0.01938592,0.0050611896,1.876414e-05,487.9991,0.010009766,1e-04,-487.9991,0.12212509,0.1140525,0.08160398,0.04963393,inf,inf,inf,inf,inf,1,1,1,1,4,2,3,2,2,1,1,1,0,2,0,0
1777226215953000,1777226215953000,1777225652689000,47.397742,8.5455943,168.55298,-0.043827433,-0.040374756,-31.36856,0.32092425,-487.9991,0.0028426582,-0.027246451,-0.025103992,-0.0032432484,-4.341242,0.08477419,0.016262472,0.04544224,-0.006775064,-0.026498454,0.0024449695,0.00028077466,-0.019428086,0.0050611896,1.852923e-05,487.9991,0.010009766,1e-04,-487.9991,0.11987851,0.11272887,0.07995584,0.049188446,inf,inf,inf,inf,inf,1,1,1,1,4,2,3,2,2,1,1,1,0,2,0,0
1777226215961000,1777226215961000,1777225652689000,47.397742,8.5455943,168.5529,-0.043805443,-0.040374756,-31.36856,0.32092425,-487.9991,0.0031293463,-0.027554378,-0.025205243,-0.003306962,-4.341242,0.08477419,0.016262472,0.044099264,-0.060255487,-0.023412982,0.002412991,0.0002808693,-0.019460695,0.0050611896,1.8573242e-05,487.9991,0.010009766,1e-04,-487.9991,0.12028045,0.11297832,0.08025507,0.049271468,inf,inf,inf,inf,inf,1,1,1,1,4,2,3,2,2,1,1,1,0,2,0,0
1777226215969000,1777226215969000,1777225652689000,47.397742,8.5455943,168.55284,-0.043792557,-0.04034424,-31.36856,0.32092425,-487.9991,0.003261322,-0.02800978,-0.025313675,-0.00338476,-4.341242,0.08477419,0.016262472,0.02450797,-0.07807933,-0.023969447,0.0023980916,0.00028096398,-0.019476166,0.0050611896,1.8617295e-05,487.9991,0.010009766,1e-04,-487.9991,0.12068514,0.113228604,0.080554344,0.049354363,inf,inf,inf,inf,inf,1,1,1,1,4,2,3,2,2,1,1,1,0,2,0,0
1777226215977000,1777226215977000,1777225652689000,47.397742,8.5455943,168.55278,-0.043788247,-0.04034424,-31.36856,0.32092425,-487.9991,0.003243909,-0.028210614,-0.025353441,-0.0034005465,-4.341242,0.08477419,0.016262472,0.005590162,-0.04566626,-0.0150548285,0.0024162603,0.00028105878,-0.01945851,0.0050611896,1.8661383e-05,487.9991,0.010009766,1e-04,-487.9991,0.121092565,0.113479726,0.08085431,0.049437128,inf,inf,inf,inf,inf,1,1,1,1,4,2,3,2,2,1,1,1,0,2,0,0
1777226215985000,1777226215985000,1777225652689000,47.397742,8.5455943,168.5527,-0.04379044,-0.04034424,-31.36856,0.32092425,-487.9991,0.0030293588,-0.028362477,-0.025641479,-0.0036710138,-4.341242,0.08477419,0.016262472,-0.019250581,-0.039032593,-0.04576705,0.0023819692,0.00028038298,-0.019493256,0.0050611896,1.8694405e-05,487.9991,0.010009766,1e-04,-487.9991,0.12150032,0.113731675,0.08114476,0.04951977,inf,inf,inf,inf,inf,1,1,1,1,4,2,3,2,2,1,1,1,0,2,0,0
1777226215993000,1777226215993000,1777225652689000,47.397742,8.5455943,168.55264,-0.0437999,-0.04034424,-31.36856,0.32092425,-487.9991,0.003002996,-0.028628552,-0.025643269,-0.0036614304,-4.341242,0.08477419,0.016262472,0.0040385784,-0.052739635,-0.009673181,0.0024119685,0.00028047754,-0.019463183,0.0050611896,1.8738563e-05,487.9991,0.010009766,1e-04,-487.9991,0.12191321,0.113984466,0.08144467,0.049602285,inf,inf,inf,inf,inf,1,1,1,1,4,2,3,2,2,1,1,1,0,2,0,0
1777226216001000,1777226216001000,1777225652689000,47.397742,8.5455943,168.55258,-0.043771528,-0.04031372,-31.36856,0.32092425,-487.9991,0.0032534178,-0.028703947,-0.025678553,-0.0036446026,-4.341242,0.08477419,0.016262472,0.039175995,-0.032676835,-0.015833413,0.0025018035,0.00028055647,-0.01937322,0.0050611896,1.850583e-05,487.9991,0.010009766,1e-04,-487.9991,0.11968166,0.112605795,0.07981037,0.049147964,inf,inf,inf,inf,inf,1,1,1,1,4,2,3,2,2,1,1,1,0,2,0,0
1777226216009000,1777226216009000,1777225652689000,47.397742,8.5455943,168.55252,-0.04374947,-0.04031372,-31.36856,0.32092425,-487.9991,0.0033224628,-0.028702894,-0.025880475,-0.00380187,-4.341242,0.08477419,0.016262472,0.016256817,-0.022470964,-0.036302485,0.0025779342,0.00028065112,-0.01929716,0.0050611896,1.8549828e-05,487.9991,0.010009766,1e-04,-487.9991,0.12008227,0.11285483,0.08010906,0.04923105,inf,inf,inf,inf,inf,1,1,1,1,4,2,3,2,2,1,1,1,0,2,0,0
1777226216017000,1777226216017000,1777225652689000,47.397742,8.5455943,168.55246,-0.04373436,-0.040283203,-31.36856,0.32092425,-487.9991,0.0035059736,-0.02891704,-0.025999848,-0.0038837842,-4.341242,0.08477419,0.016262472,0.030323206,-0.04873565,-0.02563372,0.0025709835,0.0002807458,-0.01930412,0.0050611896,1.8593866e-05,487.9991,0.010009766,1e-04,-487.9991,0.12048562,0.11310471,0.080408774,0.049314007,inf,inf,inf,inf,inf,1,1,1,1,4,2,3,2,2,1,1,1,0,2,0,0
1777226216025000,1777226216025000,1777225652689000,47.397742,8.5455943,168.5524,-0.043727823,-0.040283203,-31.36856,0.32092425,-487.9991,0.003511323,-0.029205436,-0.02629016,-0.0041435445,-4.341242,0.08477419,0.016262472,0.007813272,-0.057399027,-0.04666112,0.002561834,0.0002808404,-0.01931322,0.0050611896,1.8637933e-05,487.9991,0.010009766,1e-04,-487.9991,0.12089171,0.11335542,0.08070867,0.049396835,inf,inf,inf,inf,inf,1,1,1,1,4,2,3,2,2,1,1,1,0,2,0,0
1777226216033000,1777226216033000,1777225652689000,47.397742,8.5455943,168.55235,-0.043726694,-0.040283203,-31.36856,0.32092425,-487.9991,0.0032668796,-0.0288733,-0.026208913,-0.004038409,-4.341242,0.08477419,0.016262472,-0.023635961,0.020772746,0.00011362135,0.002535556,0.0002809351,-0.01933939,0.0050611896,1.868204e-05,487.9991,0.010009766,1e-04,-487.9991,0.121300556,0.11360697,0.081008114,0.049479537,inf,inf,inf,inf,inf,1,1,1,1,4,2,3,2,2,1,1,1,0,2,0,0
1777226216041000,1777226216041000,1777225652689000,47.397742,8.5455943,168.55229,-0.043729547,-0.040283203,-31.36856,0.32092425,-487.9991,0.0032236313,-0.0287763,-0.02587938,-0.0036914337,-4.341242,0.08477419,0.016262472,0.0012970557,-0.008027522,0.03146985,0.0025976973,0.00028102985,-0.019277079,0.0050611896,1.8726185e-05,487.9991,0.010009766,1e-04,-487.9991,0.121712156,0.11385935,0.081308074,0.049562115,inf,inf,inf,inf,inf,1,1,1,1,4,2,3,2,2,1,1,1,0,2,0,0
1777226216049000,1777226216049000,1777225652689000,47.397742,8.5455943,168.55225,-0.043736894,-0.040283203,-31.36856,0.32092425,-487.9991,0.003080403,-0.028519431,-0.025646964,-0.0034487543,-4.341242,0.08477419,0.016262472,-0.0114115095,0.012524587,0.019658355,0.0025585105,0.0002811247,-0.01931604,0.0050611896,1.877037e-05,487.9991,0.010009766,1e-04,-487.9991,0.12212652,0.114052474,0.08160909,0.0496339,inf,inf,inf,inf,inf,1,1,1,1,4,2,3,2,2,1,1,1,0,2,0,0
1777226216057000,1777226216057000,1777225652689000,47.397742,8.5455943,168.5522,-0.04370895,-0.040283203,-31.36856,0.32092425,-487.9991,0.002674673,-0.028159725,-0.025772654,-0.0035294387,-4.341242,0.08477419,0.016262472,-0.044070035,0.021957781,-0.026865395,0.0025758168,0.00028043304,-0.019298451,0.0050611896,1.852439e-05,487.9991,0.010009766,1e-04,-487.9991,0.119877554,0.11272885,0.0799517,0.04918842,inf,inf,inf,inf,inf,1,1,1,1,4,2,3,2,2,1,1,1,0,2,0,0
1777226216065000,1777226216065000,1777225652689000,47.397742,8.5455943,168.55215,-0.043684985,-0.040252686,-31.36856,0.32092425,-487.9991,0.002536859,-0.027874192,-0.026094284,-0.0038133354,-4.341242,0.08477419,0.016262472,-0.010795614,0.013331392,-0.051005274,0.0025506453,0.00028052766,-0.019323433,0.0050611896,1.8568408e-05,487.9991,0.010009766,1e-04,-487.9991,0.120279476,0.112978294,0.08025075,0.049271442,inf,inf,inf,inf,inf,1,1,1,1,4,2,3,2,2,1,1,1,0,2,0,0
1777226216073000,1777226216073000,1777225652689000,47.397742,8.5455943,168.55211,-0.043663796,-0.040252686,-31.36856,0.32092425,-487.9991,0.0026204542,-0.027406747,-0.025966844,-0.003655213,-4.341242,0.08477419,0.016262472,0.016679972,0.036702126,0.005471054,0.0025572444,0.00028062225,-0.019316584,0.0050611896,1.8612456e-05,487.9991,0.010009766,1e-04,-487.9991,0.12068414,0.11322858,0.08054927,0.04935434,inf,inf,inf,inf,inf,1,1,1,1,4,2,3,2,2,1,1,1,0,2,0,0
1777226216081000,1777226216081000,1777225652689000,47.397742,8.5455943,168.55206,-0.043646492,-0.040252686,-31.36856,0.32092425,-487.9991,0.0024977135,-0.027313635,-0.026015298,-0.0036798595,-4.341242,0.08477419,0.016262472,-0.009308917,-0.009469286,-0.01618359,0.0025328984,0.00028071698,-0.01934062,0.0050611896,1.8656552e-05,487.9991,0.010009766,1e-04,-487.9991,0.121091545,0.113479696,0.08084801,0.04943711,inf,inf,inf,inf,inf,1,1,1,1,4,2,3,2,2,1,1,1,0,2,0,0
1777226216089000,1777226216089000,1777225652689000,47.397742,8.5455943,168.55202,-0.043635026,-0.040252686,-31.36856,0.32092425,-487.9991,0.0023132893,-0.027386585,-0.026077429,-0.00372487,-4.341242,0.08477419,0.016262472,-0.017210213,-0.029623024,-0.017569864,0.002586272,0.00028081166,-0.01928693,0.0050611896,1.8700677e-05,487.9991,0.010009766,1e-04,-487.9991,0.1215017,0.11373165,0.081147455,0.049519747,inf,inf,inf,inf,inf,1,1,1,1,4,2,3,2,2,1,1,1,0,2,0,0
1777226216097000,1777226216097000,1777225652689000,47.397742,8.5455943,168.55197,-0.043630105,-0.040252686,-31.36856,0.32092425,-487.9991,0.0025200068,-0.027597101,-0.026206594,-0.0038433655,-4.341242,0.08477419,0.016262472,0.0314955,-0.046234414,-0.025635583,0.0026471803,0.00028090642,-0.019225704,0.0050611896,1.8744842e-05,487.9991,0.010009766,1e-04,-487.9991,0.12191461,0.11398444,0.081448376,0.04960226,inf,inf,inf,inf,inf,1,1,1,1,4,2,3,2,2,1,1,1,0,2,0,0
1777226216105000,1777226216105000,1777225652689000,47.397742,8.5455943,168.55194,-0.043588366,-0.040222168,-31.36856,0.32092425,-487.9991,0.0026685847,-0.027818473,-0.026347702,-0.0039393473,-4.341242,0.08477419,0.016262472,0.024148421,-0.051288877,-0.028850043,0.002714526,0.00028098616,-0.019158036,0.0050611896,1.8511972e-05,487.9991,0.010009766,1e-04,-487.9991,0.119682916,0.11260578,0.07981322,0.049147937,inf,inf,inf,inf,inf,1,1,1,1,4,2,3,2,2,1,1,1,0,2,0,0
1777226216113000,1777226216113000,1777225652689000,47.397742,8.5455943,168.55191,-0.043556504,-0.040222168,-31.36856,0.32092425,-487.9991,0.0027202494,-0.028400809,-0.026455445,-0.0040094196,-4.341242,0.08477419,0.016262472,0.01185217,-0.09574972,-0.024324747,0.0026998895,0.000281081,-0.019172598,0.0050611896,1.855598e-05,487.9991,0.010009766,1e-04,-487.9991,0.12008355,0.112854816,0.08011277,0.049231026,inf,inf,inf,inf,inf,1,1,1,1,4,2,3,2,2,1,1,1,0,2,0,0
1777226216121000,1777226216121000,1777225652689000,47.397742,8.5455943,168.55188,-0.043534257,-0.040222168,-31.36856,0.32092425,-487.9991,0.0026209652,-0.028771106,-0.026369596,-0.003893056,-4.341242,0.08477419,0.016262472,-0.007220864,-0.06876741,0.00021932645,0.002705344,0.0002802937,-0.019167064,0.0050611896,1.8587034e-05,487.9991,0.010009766,1e-04,-487.9991,0.12048425,0.113104686,0.08040153,0.049313985,inf,inf,inf,inf,inf,1,1,1,1,4,2,3,2,2,1,1,1,0,2,0,0
1777226216129000,1777226216129000,1777225652689000,47.397742,8.5455943,168.55185,-0.04351883,-0.040222168,-31.36856,0.32092425,-487.9991,0.0025376058,-0.028608516,-0.026296666,-0.0037964894,-4.341242,0.08477419,0.016262472,-0.0053966064,-0.0015214136,-0.001061242,0.002775471,0.00028038817,-0.019096274,0.0050611896,1.8631095e-05,487.9991,0.010009766,1e-04,-487.9991,0.120890304,0.1133554,0.08070125,0.049396817,inf,inf,inf,inf,inf,1,1,1,1,4,2,3,2,2,1,1,1,0,2,0,0
1777226216137000,1777226216137000,1777225652689000,47.397742,8.5455943,168.55182,-0.04350911,-0.040222168,-31.36856,0.32092425,-487.9991,0.0023505103,-0.028732752,-0.026267137,-0.0037499063,-4.341242,0.08477419,0.016262472,-0.01853147,-0.036755733,-0.0061616297,0.002808174,0.00028048267,-0.019062905,0.0050611896,1.8675193e-05,487.9991,0.010009766,1e-04,-487.9991,0.12129912,0.113606945,0.08100181,0.049479518,inf,inf,inf,inf,inf,1,1,1,1,4,2,3,2,2,1,1,1,0,2,0,0
1777226216145000,1777226216145000,1777225652689000,47.397742,8.5455943,168.5518,-0.043505903,-0.040222168,-31.36856,0.32092425,-487.9991,0.0023613914,-0.02866594,-0.026373317,-0.0038453352,-4.341242,0.08477419,0.016262472,0.0060458984,-0.012273903,-0.02280995,0.0028204839,0.00028057714,-0.01904993,0.0050611896,1.8719325e-05,487.9991,0.010009766,1e-04,-487.9991,0.12171068,0.11385933,0.08130199,0.049562097,inf,inf,inf,inf,inf,1,1,1,1,4,2,3,2,2,1,1,1,0,2,0,0
1777226216153000,1777226216153000,1777225652689000,47.397742,8.5455943,168.55177,-0.043507606,-0.040252686,-31.36856,0.32092425,-487.9991,0.002363405,-0.028633542,-0.026615981,-0.004082311,-4.341242,0.08477419,0.016262472,0.004779096,-0.015982239,-0.039590985,0.0027828987,0.0002806717,-0.01908686,0.0050611896,1.8763498e-05,487.9991,0.010009766,1e-04,-487.9991,0.12212501,0.11405245,0.08160268,0.049633887,inf,inf,inf,inf,inf,1,1,1,1,4,2,3,2,2,1,1,1,0,2,0,0
1777226216161000,1777226216161000,1777225652689000,47.397742,8.5455943,168.55177,-0.04348337,-0.040222168,-31.36856,0.32092425,-487.9991,0.0022475559,-0.02871379,-0.026606662,-0.0040264633,-4.341242,0.08477419,0.016262472,-0.010402509,-0.0332479,-0.010066665,0.0028530618,0.00028075094,-0.01901606,0.0050611896,1.8528608e-05,487.9991,0.010009766,1e-04,-487.9991,0.119878426,0.11272883,0.07995578,0.0491884,inf,inf,inf,inf,inf,1,1,1,1,4,2,3,2,2,1,1,1,0,2,0,0
1777226216169000,1777226216169000,1777225652689000,47.397742,8.5455943,168.55176,-0.043466445,-0.04019165,-31.36856,0.32092425,-487.9991,0.0018563275,-0.028860886,-0.02635438,-0.0037349958,-4.341242,0.08477419,0.016262472,-0.044964585,-0.040953983,0.020659061,0.0028679906,0.0002808456,-0.019000718,0.0050611896,1.857262e-05,487.9991,0.010009766,1e-04,-487.9991,0.12028037,0.11297827,0.08025544,0.049271427,inf,inf,inf,inf,inf,1,1,1,1,4,2,3,2,2,1,1,1,0,2,0,0
1777226216177000,1777226216177000,1777225652689000,47.397742,8.5455943,168.55174,-0.043456443,-0.04019165,-31.36856,0.32092425,-487.9991,0.0015469748,-0.02897473,-0.02604986,-0.003398318,-4.341242,0.08477419,0.016262472,-0.0348664,-0.036160845,0.027533619,0.0028222732,0.00028094026,-0.019046035,0.0050611896,1.861667e-05,487.9991,0.010009766,1e-04,-487.9991,0.120685056,0.11322856,0.080555744,0.049354322,inf,inf,inf,inf,inf,1,1,1,1,4,2,3,2,2,1,1,1,0,2,0,0
1777226216185000,1777226216185000,1777225652689000,47.397742,8.5455943,168.55173,-0.04345359,-0.04019165,-31.36856,0.32092425,-487.9991,0.001410178,-0.029172737,-0.025977455,-0.0033004968,-4.341242,0.08477419,0.016262472,-0.013430296,-0.04605688,-0.0011459923,0.002771196,0.000281035,-0.019096723,0.0050611896,1.8660758e-05,487.9991,0.010009766,1e-04,-487.9991,0.12109249,0.11347968,0.08085525,0.04943709,inf,inf,inf,inf,inf,1,1,1,1,4,2,3,2,2,1,1,1,0,2,0,0
1777226216193000,1777226216193000,1777225652689000,47.397742,8.5455943,168.55171,-0.0434576,-0.040161133,-31.36856,0.32092425,-487.9991,0.0012131473,-0.029436827,-0.025919095,-0.0032232697,-4.341242,0.08477419,0.016262472,-0.021926533,-0.053926766,-0.0025765037,0.002820261,0.00028035967,-0.019047283,0.0050611896,1.869379e-05,487.9991,0.010009766,1e-04,-487.9991,0.121500246,0.11373163,0.08114488,0.049519733,inf,inf,inf,inf,inf,1,1,1,1,4,2,3,2,2,1,1,1,0,2,0,0
1777226216201000,1777226216201000,1777225652689000,47.397742,8.5455943,168.55171,-0.043468937,-0.04019165,-31.36856,0.32092425,-487.9991,0.0010894199,-0.029584242,-0.025808744,-0.0031004297,-4.341242,0.08477419,0.016262472,-0.012871474,-0.038748365,0.004237983,0.0028948155,0.00028045423,-0.018971073,0.0050611896,1.8737945e-05,487.9991,0.010009766,1e-04,-487.9991,0.121913135,0.11398442,0.081444494,0.04960224,inf,inf,inf,inf,inf,1,1,1,1,4,2,3,2,2,1,1,1,0,2,0,0
1777226216209000,1777226216209000,1777225652689000,47.397742,8.5455943,168.55171,-0.04345488,-0.040130615,-31.36856,0.32092425,-487.9991,0.000984202,-0.029493013,-0.025538687,-0.0027753902,-4.341242,0.08477419,0.016262472,-0.010923977,-0.011996109,0.022212042,0.0029211293,0.0002805335,-0.01894312,0.0050611896,1.8505249e-05,487.9991,0.010009766,1e-04,-487.9991,0.1196816,0.11260576,0.07980928,0.049147923,inf,inf,inf,inf,inf,1,1,1,1,4,2,3,2,2,1,1,1,0,2,0,0
1777226216217000,1777226216217000,1777225652689000,47.397742,8.5455943,168.55171,-0.043445908,-0.040100098,-31.36856,0.32092425,-487.9991,0.000631166,-0.0293793,-0.02532676,-0.0025161903,-4.341242,0.08477419,0.016262472,-0.041991543,-0.008526076,0.015309545,0.002937092,0.00028062807,-0.018925749,0.0050611896,1.8549243e-05,487.9991,0.010009766,1e-04,-487.9991,0.12008221,0.11285479,0.08010916,0.049231008,inf,inf,inf,inf,inf,1,1,1,1,4,2,3,2,2,1,1,1,0,2,0,0
1777226216225000,1777226216225000,1777225652689000,47.397742,8.5455943,168.55171,-0.04344302,-0.04006958,-31.36856,0.32092425,-487.9991,0.00042923295,-0.029550293,-0.025299475,-0.0024490363,-4.341242,0.08477419,0.016262472,-0.023196828,-0.04347298,-0.0074170525,0.003030154,0.00028072268,-0.018831294,0.0050611896,1.8593277e-05,487.9991,0.010009766,1e-04,-487.9991,0.12048555,0.11310467,0.08040825,0.049313966,inf,inf,inf,inf,inf,1,1,1,1,4,2,3,2,2,1,1,1,0,2,0,0
1777226216233000,1777226216233000,1777225652689000,47.397742,8.5455943,168.55171,-0.043447945,-0.040039062,-31.36856,0.32092425,-487.9991,0.00032842872,-0.029724779,-0.025180984,-0.0022978268,-4.341242,0.08477419,0.016262472,-0.010645701,-0.04328576,0.004326924,0.0030089694,0.00028081733,-0.018851103,0.0050611896,1.8637347e-05,487.9991,0.010009766,1e-04,-487.9991,0.120891646,0.11335538,0.08070799,0.049396794,inf,inf,inf,inf,inf,1,1,1,1,4,2,3,2,2,1,1,1,0,2,0,0
1777226216241000,1777226216241000,1777225652689000,47.397742,8.5455943,168.55171,-0.043458413,-0.040039062,-31.36856,0.32092425,-487.9991,0.0002523263,-0.029591061,-0.024931034,-0.0020220324,-4.341242,0.08477419,0.016262472,-0.0076483404,-0.0041482374,0.021093057,0.0029878705,0.000280912,-0.018870847,0.0050611896,1.8681454e-05,487.9991,0.010009766,1e-04,-487.9991,0.12130049,0.11360693,0.08100803,0.049479496,inf,inf,inf,inf,inf,1,1,1,1,4,2,3,2,2,1,1,1,0,2,0,0
1777226216249000,1777226216249000,1777225652689000,47.397742,8.5455943,168.55171,-0.0434739,-0.040008545,-31.36856,0.32092425,-487.9991,0.0004537787,-0.029507559,-0.02479024,-0.0018619956,-4.341242,0.08477419,0.016262472,0.026960753,-0.009836115,0.007772352,0.0029933283,0.0002810068,-0.018864052,0.0050611896,1.8725601e-05,487.9991,0.010009766,1e-04,-487.9991,0.12171209,0.11385931,0.08130867,0.04956207,inf,inf,inf,inf,inf,1,1,1,1,4,2,3,2,2,1,1,1,0,2,0,0
1777226216257000,1777226216257000,1777225652689000,47.397742,8.5455943,168.55173,-0.043492477,-0.040008545,-31.36856,0.32092425,-487.9991,0.0008692867,-0.029303612,-0.024670077,-0.0017299082,-4.341242,0.08477419,0.016262472,0.053690422,0.0056319525,0.005538109,0.003048038,0.00028033197,-0.018808024,0.0050611896,1.8758617e-05,487.9991,0.010009766,1e-04,-487.9991,0.12212394,0.11405244,0.0815999,0.04963386,inf,inf,inf,inf,inf,1,1,1,1,4,2,3,2,2,1,1,1,0,2,0,0
1777226216265000,1777226216265000,1777225652689000,47.397742,8.5455943,168.55171,-0.043478135,-0.03994751,-31.36856,0.32092425,-487.9991,0.00077405624,-0.029657636,-0.024404142,-0.0014103805,-4.341242,0.08477419,0.016262472,-0.009340612,-0.06765891,0.021754762,0.0030450467,0.00028041095,-0.018808516,0.0050611896,1.8523864e-05,487.9991,0.010009766,1e-04,-487.9991,0.11987747,0.11272881,0.07995292,0.04918838,inf,inf,inf,inf,inf,1,1,1,1,4,2,3,2,2,1,1,1,0,2,0,0
1777226216273000,1777226216273000,1777225652689000,47.397742,8.5455943,168.55171,-0.043472763,-0.039916992,-31.36856,0.32092425,-487.9991,0.0007913269,-0.029914387,-0.024387037,-0.0013472774,-4.341242,0.08477419,0.016262472,0.004608693,-0.054844946,-0.008986331,0.0030367628,0.00028050563,-0.018814549,0.0050611896,1.8567885e-05,487.9991,0.010009766,1e-04,-487.9991,0.120279394,0.11297826,0.080251895,0.049271405,inf,inf,inf,inf,inf,1,1,1,1,4,2,3,2,2,1,1,1,0,2,0,0
1777226216281000,1777226216281000,1777225652689000,47.397742,8.5455943,168.55171,-0.04347478,-0.039886475,-31.36856,0.32092425,-487.9991,0.00072829606,-0.030082056,-0.024499873,-0.0014214568,-4.341242,0.08477419,0.016262472,-0.005530746,-0.043069948,-0.024877021,0.0030092886,0.00028060027,-0.018839788,0.0050611896,1.861194e-05,487.9991,0.010009766,1e-04,-487.9991,0.120684065,0.113228545,0.08055117,0.049354296,inf,inf,inf,inf,inf,1,1,1,1,4,2,3,2,2,1,1,1,0,2,0,0
1777226216289000,1777226216289000,1777225652689000,47.397742,8.5455943,168.55171,-0.043484062,-0.039855957,-31.36856,0.32092425,-487.9991,0.00035642207,-0.030211678,-0.024581697,-0.0014717143,-4.341242,0.08477419,0.016262472,-0.044239026,-0.037692446,-0.020658595,0.0030127799,0.00028069495,-0.01883409,0.0050611896,1.865603e-05,487.9991,0.010009766,1e-04,-487.9991,0.12109147,0.11347966,0.080850795,0.049437065,inf,inf,inf,inf,inf,1,1,1,1,4,2,3,2,2,1,1,1,0,2,0,0
1777226216297000,1777226216297000,1777225652689000,47.397742,8.5455943,168.55171,-0.04350003,-0.03982544,-31.36856,0.32092425,-487.9991,0.00011666612,-0.03037828,-0.02446567,-0.0013309439,-4.341242,0.08477419,0.016262472,-0.027829211,-0.041705593,0.0044046897,0.0030216724,0.00028078968,-0.01882302,0.0050611896,1.8700157e-05,487.9991,0.010009766,1e-04,-487.9991,0.12150163,0.113731615,0.08115113,0.049519707,inf,inf,inf,inf,inf,1,1,1,1,4,2,3,2,2,1,1,1,0,2,0,0
1777226216305000,1777226216305000,1777225652689000,47.397742,8.5455943,168.5517,-0.043522555,-0.039794922,-31.36856,0.32092425,-487.9991,4.670561e-05,-0.030346824,-0.024175247,-0.0010232804,-4.341242,0.08477419,0.016262472,-0.006700953,-0.016356148,0.026526859,0.0030690844,0.00028088444,-0.01877346,0.0050611896,1.8744322e-05,487.9991,0.010009766,1e-04,-487.9991,0.121914566,0.113984406,0.081452094,0.049602218,inf,inf,inf,inf,inf,1,1,1,1,4,2,3,2,2,1,1,1,0,2,0,0
1777226216313000,1777226216313000,1777225652689000,47.397742,8.5455943,168.55168,-0.043510932,-0.039764404,-31.36856,0.32092425,-487.9991,0.0002920853,-0.030303378,-0.024195306,-0.0009886406,-4.341242,0.08477419,0.016262472,0.0339823,-0.018400505,-0.014157965,0.003090741,0.00028096428,-0.018749684,0.0050611896,1.8511413e-05,487.9991,0.010009766,1e-04,-487.9991,0.11968285,0.11260574,0.07981625,0.0491479,inf,inf,inf,inf,inf,1,1,1,1,4,2,3,2,2,1,1,1,0,2,0,0
1777226216321000,1777226216321000,1777225652689000,47.397742,8.5455943,168.55165,-0.04350522,-0.03970337,-31.36856,0.32092425,-487.9991,0.0003024986,-0.030236118,-0.024048014,-0.0007943339,-4.341242,0.08477419,0.016262472,0.004360292,-0.0147729935,0.0071283425,0.0030731584,0.000280947,-0.01876541,0.0050611896,1.85534e-05,487.9991,0.010009766,1e-04,-487.9991,0.12008312,0.11285478,0.08011298,0.049230985,inf,inf,inf,inf,inf,1,1,1,1,4,2,3,2,2,1,1,1,0,2,0,0
1777226216329000,1777226216329000,1777225652689000,47.397742,8.5455943,168.55164,-0.043504313,-0.03967285,-31.36856,0.32092425,-487.9991,0.00042128138,-0.030071454,-0.023982039,-0.0006888231,-4.341242,0.08477419,0.016262472,0.017738609,-0.0019557427,-0.0026794148,0.0030170619,0.0002802721,-0.01881829,0.0050611896,1.8586477e-05,487.9991,0.010009766,1e-04,-487.9991,0.120484196,0.11310466,0.08040213,0.049313944,inf,inf,inf,inf,inf,1,1,1,1,4,2,3,2,2,1,1,1,0,2,0,0
1777226216337000,1777226216337000,1777225652689000,47.397742,8.5455943,168.55162,-0.04351129,-0.039611816,-31.36856,0.32092425,-487.9991,0.0003877433,-0.030644499,-0.023897564,-0.0005720709,-4.341242,0.08477419,0.016262472,-0.0014153483,-0.0935347,-2.0489095e-05,0.003039554,0.0002803666,-0.018792558,0.0050611896,1.863054e-05,487.9991,0.010009766,1e-04,-487.9991,0.12089025,0.11335537,0.08070149,0.049396772,inf,inf,inf,inf,inf,1,1,1,1,4,2,3,2,2,1,1,1,0,2,0,0
1777226216345000,1777226216345000,1777225652689000,47.397742,8.5455943,168.5516,-0.043526594,-0.0395813,-31.36856,0.32092425,-487.9991,0.0001437306,-0.030588886,-0.024029443,-0.0006786821,-4.341242,0.08477419,0.016262472,-0.027837055,-0.014330129,-0.026728025,0.003096318,0.0002804611,-0.018732578,0.0050611896,1.8674637e-05,487.9991,0.010009766,1e-04,-487.9991,0.121299066,0.113606915,0.08100115,0.049479473,inf,inf,inf,inf,inf,1,1,1,1,4,2,3,2,2,1,1,1,0,2,0,0
1777226216353000,1777226216353000,1777225652689000,47.397742,8.5455943,168.55159,-0.043546006,-0.0395813,-31.36856,0.32092425,-487.9991,7.724625e-05,-0.030352991,-0.023933887,-0.00056463503,-4.341242,0.08477419,0.016262472,-0.005750902,0.008808836,0.0020279547,0.003036976,0.00028055575,-0.018788723,0.0050611896,1.8718778e-05,487.9991,0.010009766,1e-04,-487.9991,0.12171062,0.113859296,0.081300974,0.049562052,inf,inf,inf,inf,inf,1,1,1,1,4,2,3,2,2,1,1,1,0,2,0,0
1777226216361000,1777226216361000,1777225652689000,47.397742,8.5455943,168.55157,-0.043569822,-0.03955078,-31.36856,0.32092425,-487.9991,4.9476563e-05,-0.030313153,-0.023791198,-0.0004090345,-4.341242,0.08477419,0.016262472,-0.0010230577,-0.015116209,0.0082165925,0.0030012217,0.0002806503,-0.018821334,0.0050611896,1.876295e-05,487.9991,0.010009766,1e-04,-487.9991,0.12212495,0.11405242,0.0816007,0.04963384,inf,inf,inf,inf,inf,1,1,1,1,4,2,3,2,2,1,1,1,0,2,0,0
1777226216369000,1777226216369000,1777225652689000,47.397742,8.5455943,168.55156,-0.0435519,-0.039489746,-31.36856,0.32092425,-487.9991,-4.912672e-06,-0.03023025,-0.02376103,-0.00033576152,-4.341242,0.08477419,0.016262472,-0.0039024013,-0.013773852,-0.0074324193,0.0029941706,0.00028073005,-0.018825296,0.0050611896,1.852812e-05,487.9991,0.010009766,1e-04,-487.9991,0.11987842,0.1127288,0.07995272,0.049188353,inf,inf,inf,inf,inf,1,1,1,1,4,2,3,2,2,1,1,1,0,2,0,0
1777226216377000,1777226216377000,1777225652689000,47.397742,8.5455943,168.55154,-0.043538943,-0.03945923,-31.36856,0.32092425,-487.9991,-0.00034491904,-0.030034127,-0.023776056,-0.0003152892,-4.341242,0.08477419,0.016262472,-0.03971098,0.0010630165,-0.012726988,0.002942831,0.00028082478,-0.018873861,0.0050611896,1.8572142e-05,487.9991,0.010009766,1e-04,-487.9991,0.12028034,0.11297824,0.08025181,0.049271375,inf,inf,inf,inf,inf,1,1,1,1,4,2,3,2,2,1,1,1,0,2,0,0
1777226216385000,1777226216385000,1777225652689000,47.397742,8.5455943,168.55151,-0.043531656,-0.03942871,-31.36856,0.32092425,-487.9991,-0.00080755923,-0.030089723,-0.02364854,-0.00015962397,-4.341242,0.08477419,0.016262472,-0.055150826,-0.02973898,0.005435198,0.0029033944,0.0002809195,-0.018910568,0.0050611896,1.8616196e-05,487.9991,0.010009766,1e-04,-487.9991,0.12068501,0.11322853,0.080551,0.04935427,inf,inf,inf,inf,inf,1,1,1,1,4,2,3,2,2,1,1,1,0,2,0,0
1777226216393000,1777226216393000,1777225652689000,47.397742,8.5455943,168.55148,-0.04353091,-0.039398193,-31.36856,0.32092425,-487.9991,-0.00086302496,-0.030137619,-0.023617173,-0.000107237895,-4.341242,0.08477419,0.016262472,-0.004392859,-0.028257176,-0.006249174,0.0029791463,0.0002802452,-0.018832134,0.0050611896,1.8649258e-05,487.9991,0.010009766,1e-04,-487.9991,0.12109005,0.113479644,0.080840595,0.04943704,inf,inf,inf,inf,inf,1,1,1,1,4,2,3,2,2,1,1,1,0,2,0,0
1777226216401000,1777226216401000,1777225652689000,47.397742,8.5455943,168.55147,-0.04353487,-0.039367676,-31.36856,0.32092425,-487.9991,-0.0011336808,-0.029907158,-0.023715569,-0.00019153062,-4.341242,0.08477419,0.016262472,-0.031396627,0.007169754,-0.022144986,0.0030166565,0.00028033977,-0.018791057,0.0050611896,1.869338e-05,487.9991,0.010009766,1e-04,-487.9991,0.121500164,0.1137316,0.08114029,0.049519673,inf,inf,inf,inf,inf,1,1,1,1,4,2,3,2,2,1,1,1,0,2,0,0
1777226216409000,1777226216409000,1777225652689000,47.397742,8.5455943,168.55144,-0.043543812,-0.03933716,-31.36856,0.32092425,-487.9991,-0.0017196276,-0.02985963,-0.023926329,-0.00039488182,-4.341242,0.08477419,0.016262472,-0.07090323,-0.015083004,-0.035875473,0.0029807359,0.00028043427,-0.018823458,0.0050611896,1.8737532e-05,487.9991,0.010009766,1e-04,-487.9991,0.12191304,0.11398439,0.08144039,0.049602184,inf,inf,inf,inf,inf,1,1,1,1,4,2,3,2,2,1,1,1,0,2,0,0
1777226216417000,1777226216417000,1777225652689000,47.397742,8.5455943,168.5514,-0.043511316,-0.03930664,-31.36856,0.32092425,-487.9991,-0.001642635,-0.029703144,-0.02373497,-0.00016200665,-4.341242,0.08477419,0.016262472,0.01243173,-0.005453103,0.012705567,0.0029968845,0.00028051395,-0.018803835,0.0050611896,1.8504925e-05,487.9991,0.010009766,1e-04,-487.9991,0.11968157,0.11260573,0.07980454,0.04914787,inf,inf,inf,inf,inf,1,1,1,1,4,2,3,2,2,1,1,1,0,2,0,0
1777226216425000,1777226216425000,1777225652689000,47.397742,8.5455943,168.55138,-0.043483566,-0.039245605,-31.36856,0.32092425,-487.9991,-0.001764275,-0.029470313,-0.023614762,-8.106639e-06,-4.341242,0.08477419,0.016262472,-0.012509553,0.0047934814,0.0041667367,0.0030206218,0.00028060857,-0.018776964,0.0050611896,1.8548923e-05,487.9991,0.010009766,1e-04,-487.9991,0.12008216,0.112854764,0.080103606,0.049230956,inf,inf,inf,inf,inf,1,1,1,1,4,2,3,2,2,1,1,1,0,2,0,0
1777226216433000,1777226216433000,1777225652689000,47.397742,8.5455943,168.55135,-0.043461926,-0.039215088,-31.36856,0.32092425,-487.9991,-0.0018973219,-0.029586304,-0.023535118,9.770453e-05,-4.341242,0.08477419,0.016262472,-0.014045057,-0.03812497,-0.0005587935,0.0029966848,0.00028070319,-0.018797839,0.0050611896,1.8592957e-05,487.9991,0.010009766,1e-04,-487.9991,0.120485485,0.113104634,0.080403246,0.049313918,inf,inf,inf,inf,inf,1,1,1,1,4,2,3,2,2,1,1,1,0,2,0,0
1777226216441000,1777226216441000,1777225652689000,47.397742,8.5455943,168.5513,-0.04344676,-0.03918457,-31.36856,0.32092425,-487.9991,-0.002215081,-0.029377388,-0.023435954,0.00021580711,-4.341242,0.08477419,0.016262472,-0.03723953,0.0031530934,0.0022156162,0.002957998,0.00028079783,-0.018833531,0.0050611896,1.8637023e-05,487.9991,0.010009766,1e-04,-487.9991,0.120891556,0.113355346,0.08070297,0.04939675,inf,inf,inf,inf,inf,1,1,1,1,4,2,3,2,2,1,1,1,0,2,0,0
1777226216449000,1777226216449000,1777225652689000,47.397742,8.5455943,168.55127,-0.04343554,-0.039154053,-31.36856,0.32092425,-487.9991,-0.0023154553,-0.029133542,-0.023677904,-1.4167861e-05,-4.341242,0.08477419,0.016262472,-0.010167495,0.008171738,-0.040098555,0.0029895466,0.00028089262,-0.018799057,0.0050611896,1.8681138e-05,487.9991,0.010009766,1e-04,-487.9991,0.121300384,0.1136069,0.0810025,0.049479455,inf,inf,inf,inf,inf,1,1,1,1,4,2,3,2,2,1,1,1,0,2,0,0
1777226216457000,1777226216457000,1777225652689000,47.397742,8.5455943,168.55124,-0.04342875,-0.039154053,-31.36856,0.32092425,-487.9991,-0.0022008095,-0.028873462,-0.023844,-0.00017504388,-4.341242,0.08477419,0.016262472,0.016615754,0.010834047,-0.030301044,0.003070067,0.00028098735,-0.018715683,0.0050611896,1.872528e-05,487.9991,0.010009766,1e-04,-487.9991,0.12171196,0.11385928,0.08130191,0.049562026,inf,inf,inf,inf,inf,1,1,1,1,4,2,3,2,2,1,1,1,0,2,0,0
1777226216465000,1777226216465000,1777225652689000,47.397742,8.5455943,168.55121,-0.04342481,-0.039123535,-31.36856,0.32092425,-487.9991,-0.0016942789,-0.028664771,-0.02391391,-0.00024526857,-4.341242,0.08477419,0.016262472,0.06585356,0.0048460644,-0.018007586,0.0030685856,0.000280313,-0.018714376,0.0050611896,1.8758308e-05,487.9991,0.010009766,1e-04,-487.9991,0.122123785,0.11405241,0.081592835,0.049633816,inf,inf,inf,inf,inf,1,1,1,1,4,2,3,2,2,1,1,1,0,2,0,0
1777226216473000,1777226216473000,1777225652689000,47.397742,8.5455943,168.55118,-0.04337916,-0.039093018,-31.36856,0.32092425,-487.9991,-0.0014178499,-0.028735183,-0.023871351,-0.00017075695,-4.341242,0.08477419,0.016262472,0.037459828,-0.03411248,-0.005587935,0.0029796516,0.00028039239,-0.018799169,0.0050611896,1.8523682e-05,487.9991,0.010009766,1e-04,-487.9991,0.11987741,0.112728775,0.079945564,0.04918833,inf,inf,inf,inf,inf,1,1,1,1,4,2,3,2,2,1,1,1,0,2,0,0
1777226216481000,1777226216481000,1777225652689000,47.397742,8.5455943,168.55115,-0.04334095,-0.0390625,-31.36856,0.32092425,-487.9991,-0.0016593625,-0.028817862,-0.024038762,-0.00031381065,-4.341242,0.08477419,0.016262472,-0.027392363,-0.034928635,-0.03148848,0.0029442806,0.00028048691,-0.01883073,0.0050611896,1.8567694e-05,487.9991,0.010009766,1e-04,-487.9991,0.12027931,0.11297823,0.08024464,0.049271353,inf,inf,inf,inf,inf,1,1,1,1,4,2,3,2,2,1,1,1,0,2,0,0
1777226216489000,1777226216489000,1777225652689000,47.397742,8.5455943,168.55112,-0.04330985,-0.039031982,-31.36856,0.32092425,-487.9991,-0.0021781763,-0.028867168,-0.023867458,-0.00012548245,-4.341242,0.08477419,0.016262472,-0.062169068,-0.030058468,0.0111875115,0.0029354603,0.0002805816,-0.018835837,0.0050611896,1.861175e-05,487.9991,0.010009766,1e-04,-487.9991,0.12068395,0.11322851,0.080543905,0.04935425,inf,inf,inf,inf,inf,1,1,1,1,4,2,3,2,2,1,1,1,0,2,0,0
1777226216497000,1777226216497000,1777225652689000,47.397742,8.5455943,168.55107,-0.04328501,-0.039001465,-31.36856,0.32092425,-487.9991,-0.0020747709,-0.028720096,-0.023972752,-0.00022080803,-4.341242,0.08477419,0.016262472,0.0155020375,-0.0048397263,-0.023060942,0.0028436773,0.00028067626,-0.018924003,0.0050611896,1.8655843e-05,487.9991,0.010009766,1e-04,-487.9991,0.121091336,0.11347963,0.08084391,0.04943702,inf,inf,inf,inf,inf,1,1,1,1,4,2,3,2,2,1,1,1,0,2,0,0
1777226216505000,1777226216505000,1777225652689000,47.397742,8.5455943,168.55104,-0.043265644,-0.039001465,-31.36856,0.32092425,-487.9991,-0.0019008195,-0.028688805,-0.023833882,-7.875997e-05,-4.341242,0.08477419,0.016262472,0.024218343,-0.018660435,0.0077760774,0.0028182056,0.00028077097,-0.018945955,0.0050611896,1.8699971e-05,487.9991,0.010009766,1e-04,-487.9991,0.121501476,0.113731585,0.081143655,0.049519658,inf,inf,inf,inf,inf,1,1,1,1,4,2,3,2,2,1,1,1,0,2,0,0
1777226216513000,1777226216513000,1777225652689000,47.397742,8.5455943,168.55101,-0.043252215,-0.039001465,-31.36856,0.32092425,-487.9991,-0.0016516894,-0.02866264,-0.024145532,-0.00039379793,-4.341242,0.08477419,0.016262472,0.033519477,-0.018660683,-0.04823133,0.0028374775,0.00028086564,-0.018923257,0.0050611896,1.8744133e-05,487.9991,0.010009766,1e-04,-487.9991,0.12191437,0.11398437,0.081443585,0.049602173,inf,inf,inf,inf,inf,1,1,1,1,4,2,3,2,2,1,1,1,0,2,0,0
1777226216521000,1777226216521000,1777225652689000,47.397742,8.5455943,168.55098,-0.04319764,-0.03894043,-31.36856,0.32092425,-487.9991,-0.0019032917,-0.028698342,-0.023987206,-0.00019957457,-4.341242,0.08477419,0.016262472,-0.028320106,-0.030540276,0.008642673,0.002854737,0.00028083392,-0.018902665,0.0050611896,1.8509352e-05,487.9991,0.010009766,1e-04,-487.9991,0.1196824,0.11260571,0.07980653,0.049147855,inf,inf,inf,inf,inf,1,1,1,1,4,2,3,2,2,1,1,1,0,2,0,0
1777226216529000,1777226216529000,1777225652689000,47.397742,8.5455943,168.55093,-0.043151084,-0.038909912,-31.36856,0.32092425,-487.9991,-0.0025051616,-0.02890323,-0.02405737,-0.00024166692,-4.341242,0.08477419,0.016262472,-0.07230762,-0.05095856,-0.019565688,0.0028101574,0.00028016017,-0.018943794,0.0050611896,1.8542463e-05,487.9991,0.010009766,1e-04,-487.9991,0.120080754,0.11285475,0.08009627,0.049230944,inf,inf,inf,inf,inf,1,1,1,1,4,2,3,2,2,1,1,1,0,2,0,0
1777226216537000,1777226216537000,1777225652689000,47.397742,8.5455943,168.55089,-0.043112747,-0.038879395,-31.36856,0.32092425,-487.9991,-0.0027760067,-0.028981715,-0.023929285,-9.306584e-05,-4.341242,0.08477419,0.016262472,-0.031033399,-0.034443755,0.0055581327,0.0027169134,0.00028025458,-0.019033756,0.0050611896,1.8586486e-05,487.9991,0.010009766,1e-04,-487.9991,0.12048405,0.11310462,0.080395065,0.049313903,inf,inf,inf,inf,inf,1,1,1,1,4,2,3,2,2,1,1,1,0,2,0,0
1777226216545000,1777226216545000,1777225652689000,47.397742,8.5455943,168.55084,-0.043079905,-0.038848877,-31.36856,0.32092425,-487.9991,-0.002641733,-0.028662736,-0.023792893,5.6545483e-05,-4.341242,0.08477419,0.016262472,0.019506928,0.015934827,0.006929505,0.0026406408,0.00028034902,-0.01910683,0.0050611896,1.8630546e-05,487.9991,0.010009766,1e-04,-487.9991,0.12089007,0.11335533,0.08069454,0.04939673,inf,inf,inf,inf,inf,1,1,1,1,4,2,3,2,2,1,1,1,0,2,0,0
1777226216553000,1777226216553000,1777225652689000,47.397742,8.5455943,168.5508,-0.043051235,-0.038848877,-31.36856,0.32092425,-487.9991,-0.0023152903,-0.028352998,-0.023710882,0.00014475768,-4.341242,0.08477419,0.016262472,0.04342976,0.0154543985,0.00045495105,0.0026497648,0.0002804435,-0.019094588,0.0050611896,1.8674644e-05,487.9991,0.010009766,1e-04,-487.9991,0.12129886,0.11360688,0.08099455,0.04947943,inf,inf,inf,inf,inf,1,1,1,1,4,2,3,2,2,1,1,1,0,2,0,0
1777226216561000,1777226216561000,1777225652689000,47.397742,8.5455943,168.55075,-0.043027848,-0.03881836,-31.36856,0.32092425,-487.9991,-0.0023685035,-0.028495533,-0.02376151,9.361375e-05,-4.341242,0.08477419,0.016262472,-0.0041208547,-0.040419776,-0.015811061,0.0026973006,0.00028053805,-0.01904404,0.0050611896,1.8718782e-05,487.9991,0.010009766,1e-04,-487.9991,0.1217104,0.113859266,0.08129499,0.049562007,inf,inf,inf,inf,inf,1,1,1,1,4,2,3,2,2,1,1,1,0,2,0,0
1777226216569000,1777226216569000,1777225652689000,47.397742,8.5455943,168.5507,-0.043012585,-0.03881836,-31.36856,0.32092425,-487.9991,-0.0025926053,-0.028684318,-0.024011338,-0.000163185,-4.341242,0.08477419,0.016262472,-0.025578642,-0.04555693,-0.04041474,0.0027866221,0.00028063267,-0.01895181,0.0050611896,1.8762958e-05,487.9991,0.010009766,1e-04,-487.9991,0.122124694,0.114052385,0.081594974,0.049633794,inf,inf,inf,inf,inf,1,1,1,1,4,2,3,2,2,1,1,1,0,2,0,0
1777226216577000,1777226216577000,1777225652689000,47.397742,8.5455943,168.55067,-0.04296449,-0.03878784,-31.36856,0.32092425,-487.9991,-0.0029292174,-0.02855509,-0.024267014,-0.0003944913,-4.341242,0.08477419,0.016262472,-0.039600678,-0.009328242,-0.042740718,0.0028151597,0.0002807129,-0.018920468,0.0050611896,1.8528212e-05,487.9991,0.010009766,1e-04,-487.9991,0.11987825,0.11272877,0.079947606,0.049188316,inf,inf,inf,inf,inf,1,1,1,1,4,2,3,2,2,1,1,1,0,2,0,0
1777226216585000,1777226216585000,1777225652689000,47.397742,8.5455943,168.55063,-0.042922888,-0.038757324,-31.36856,0.32092425,-487.9991,-0.0031287961,-0.028560448,-0.024530422,-0.0006409987,-4.341242,0.08477419,0.016262472,-0.022566207,-0.025437174,-0.043364704,0.0028608914,0.00028080758,-0.01887226,0.0050611896,1.8572227e-05,487.9991,0.010009766,1e-04,-487.9991,0.120280154,0.11297822,0.08024658,0.049271338,inf,inf,inf,inf,inf,1,1,1,1,4,2,3,2,2,1,1,1,0,2,0,0
1777226216593000,1777226216593000,1777225652689000,47.397742,8.5455943,168.55058,-0.042887136,-0.038757324,-31.36856,0.32092425,-487.9991,-0.0033403498,-0.02839226,-0.024303654,-0.00040454656,-4.341242,0.08477419,0.016262472,-0.024152234,-0.0030425624,0.018239485,0.0028703895,0.00028090237,-0.018860374,0.0050611896,1.8616285e-05,487.9991,0.010009766,1e-04,-487.9991,0.1206848,0.1132285,0.0805457,0.049354233,inf,inf,inf,inf,inf,1,1,1,1,4,2,3,2,2,1,1,1,0,2,0,0
1777226216601000,1777226216601000,1777225652689000,47.397742,8.5455943,168.55054,-0.042857688,-0.038726807,-31.36856,0.32092425,-487.9991,-0.0034082318,-0.028569628,-0.02406475,-0.00016288547,-4.341242,0.08477419,0.016262472,-0.0066038915,-0.045643445,0.020079779,0.0028087397,0.0002802285,-0.018919727,0.0050611896,1.8649356e-05,487.9991,0.010009766,1e-04,-487.9991,0.12108982,0.11347962,0.080836535,0.049437,inf,inf,inf,inf,inf,1,1,1,1,4,2,3,2,2,1,1,1,0,2,0,0
1777226216609000,1777226216609000,1777225652689000,47.397742,8.5455943,168.55049,-0.042835392,-0.038726807,-31.36856,0.32092425,-487.9991,-0.0034502263,-0.02856733,-0.024158599,-0.00026059628,-4.341242,0.08477419,0.016262472,-0.0034535332,-0.022515008,-0.02120109,0.0027329035,0.00028032294,-0.018992813,0.0050611896,1.869347e-05,487.9991,0.010009766,1e-04,-487.9991,0.12149992,0.11373158,0.081136964,0.04951964,inf,inf,inf,inf,inf,1,1,1,1,4,2,3,2,2,1,1,1,0,2,0,0
1777226216617000,1777226216617000,1777225652689000,47.397742,8.5455943,168.55045,-0.042819336,-0.038726807,-31.36856,0.32092425,-487.9991,-0.0036041336,-0.028616816,-0.023994697,-0.000106894644,-4.341242,0.08477419,0.016262472,-0.017525787,-0.028342752,0.011322088,0.0027892347,0.0002804175,-0.018933818,0.0050611896,1.8737626e-05,487.9991,0.010009766,1e-04,-487.9991,0.12191278,0.11398436,0.08143759,0.049602147,inf,inf,inf,inf,inf,1,1,1,1,4,2,3,2,2,1,1,1,0,2,0,0
1777226216625000,1777226216625000,1777225652689000,47.397742,8.5455943,168.5504,-0.042758822,-0.03869629,-31.36856,0.32092425,-487.9991,-0.003687383,-0.028756827,-0.024245337,-0.00033122412,-4.341242,0.08477419,0.016262472,-0.00855737,-0.043766953,-0.042253636,0.0027975684,0.0002804976,-0.018922908,0.0050611896,1.8505045e-05,487.9991,0.010009766,1e-04,-487.9991,0.11968134,0.112605706,0.079802565,0.04914783,inf,inf,inf,inf,inf,1,1,1,1,4,2,3,2,2,1,1,1,0,2,0,0
1777226216633000,1777226216633000,1777225652689000,47.397742,8.5455943,168.55035,-0.04270504,-0.03866577,-31.36856,0.32092425,-487.9991,-0.003473355,-0.028506536,-0.024313524,-0.00038055802,-4.341242,0.08477419,0.016262472,0.028523374,0.005761253,-0.019100493,0.0028086947,0.0002805922,-0.018909596,0.0050611896,1.8549043e-05,487.9991,0.010009766,1e-04,-487.9991,0.120081924,0.11285474,0.08010199,0.04923092,inf,inf,inf,inf,inf,1,1,1,1,4,2,3,2,2,1,1,1,0,2,0,0
1777226216641000,1777226216641000,1777225652689000,47.397742,8.5455943,168.55031,-0.04265638,-0.03866577,-31.36856,0.32092425,-487.9991,-0.0031466614,-0.028306058,-0.024285242,-0.00034060347,-4.341242,0.08477419,0.016262472,0.042524178,0.00025526696,-0.0067050564,0.0028337545,0.00028068686,-0.018882463,0.0050611896,1.8593078e-05,487.9991,0.010009766,1e-04,-487.9991,0.120485246,0.11310461,0.08040071,0.049313877,inf,inf,inf,inf,inf,1,1,1,1,4,2,3,2,2,1,1,1,0,2,0,0
1777226216649000,1777226216649000,1777225652689000,47.397742,8.5455943,168.55028,-0.042612776,-0.038635254,-31.36856,0.32092425,-487.9991,-0.0031379343,-0.028046997,-0.024254868,-0.00030548143,-4.341242,0.08477419,0.016262472,0.0027003842,0.008273759,-0.006116926,0.002783045,0.00028078147,-0.018931208,0.0050611896,1.8637149e-05,487.9991,0.010009766,1e-04,-487.9991,0.1208913,0.11335532,0.08070065,0.0493967,inf,inf,inf,inf,inf,1,1,1,1,4,2,3,2,2,1,1,1,0,2,0,0
1777226216657000,1777226216657000,1777225652689000,47.397742,8.5455943,168.55023,-0.04257371,-0.038635254,-31.36856,0.32092425,-487.9991,-0.0030294775,-0.027768865,-0.024027402,-7.993687e-05,-4.341242,0.08477419,0.016262472,0.015094832,0.011341598,0.018836929,0.0027833737,0.00028087627,-0.018929023,0.0050611896,1.8681263e-05,487.9991,0.010009766,1e-04,-487.9991,0.121300116,0.11360687,0.08100026,0.049479403,inf,inf,inf,inf,inf,1,1,1,1,4,2,3,2,2,1,1,1,0,2,0,0
1777226216665000,1777226216665000,1777225652689000,47.397742,8.5455943,168.5502,-0.04253917,-0.038635254,-31.36856,0.32092425,-487.9991,-0.0030796183,-0.027802126,-0.023978733,-3.958738e-05,-4.341242,0.08477419,0.016262472,-0.0048051,-0.027094893,-0.003204215,0.0028106342,0.00028020298,-0.01890001,0.0050611896,1.871432e-05,487.9991,0.010009766,1e-04,-487.9991,0.12170922,0.11385926,0.08129168,0.049561977,inf,inf,inf,inf,inf,1,1,1,1,4,2,3,2,2,1,1,1,0,2,0,0
1777226216673000,1777226216673000,1777225652689000,47.397742,8.5455943,168.55017,-0.042512868,-0.038635254,-31.36856,0.32092425,-487.9991,-0.0031858508,-0.028086988,-0.023851844,7.3850795e-05,-4.341242,0.08477419,0.016262472,-0.011886804,-0.057886746,0.006841961,0.002838933,0.00028029748,-0.018868767,0.0050611896,1.8758496e-05,487.9991,0.010009766,1e-04,-487.9991,0.1221235,0.11405238,0.0815916,0.049633767,inf,inf,inf,inf,inf,1,1,1,1,4,2,3,2,2,1,1,1,0,2,0,0
1777226216681000,1777226216681000,1777225652689000,47.397742,8.5455943,168.55011,-0.042433903,-0.038604736,-31.36856,0.32092425,-487.9991,-0.0035922145,-0.027795866,-0.02384504,0.0001048852,-4.341242,0.08477419,0.016262472,-0.048869766,0.009612496,-0.009991228,0.002880308,0.00028037748,-0.018824544,0.0050611896,1.8523879e-05,487.9991,0.010009766,1e-04,-487.9991,0.119877174,0.11272876,0.07994471,0.04918829,inf,inf,inf,inf,inf,1,1,1,1,4,2,3,2,2,1,1,1,0,2,0,0
1777226216689000,1777226216689000,1777225652689000,47.397742,8.5455943,168.55006,-0.042360816,-0.03857422,-31.36856,0.32092425,-487.9991,-0.003738931,-0.027688919,-0.02372275,0.0002440316,-4.341242,0.08477419,0.016262472,-0.016488075,-0.012656746,0.00478886,0.0028580476,0.00028047207,-0.018844353,0.0050611896,1.8567895e-05,487.9991,0.010009766,1e-04,-487.9991,0.120279066,0.11297821,0.08024347,0.04927131,inf,inf,inf,inf,inf,1,1,1,1,4,2,3,2,2,1,1,1,0,2,0,0
1777226216697000,1777226216697000,1777225652689000,47.397742,8.5455943,168.55002,-0.042293783,-0.0385437,-31.36856,0.32092425,-487.9991,-0.0037945602,-0.027377373,-0.023950586,2.591568e-05,-4.341242,0.08477419,0.016262472,-0.0051793028,0.0136530185,-0.0386429,0.0028080822,0.0002805667,-0.018891966,0.0050611896,1.8611949e-05,487.9991,0.010009766,1e-04,-487.9991,0.12068369,0.11322849,0.08054263,0.049354203,inf,inf,inf,inf,inf,1,1,1,1,4,2,3,2,2,1,1,1,0,2,0,0
1777226216705000,1777226216705000,1777225652689000,47.397742,8.5455943,168.54996,-0.042231362,-0.038513184,-31.36856,0.32092425,-487.9991,-0.003989622,-0.027154323,-0.024026891,-4.7567475e-05,-4.341242,0.08477419,0.016262472,-0.022681676,0.003308248,-0.019377096,0.0028082966,0.0002806613,-0.018889492,0.0050611896,1.8656037e-05,487.9991,0.010009766,1e-04,-487.9991,0.12109107,0.113479614,0.08084228,0.049436968,inf,inf,inf,inf,inf,1,1,1,1,4,2,3,2,2,0,1,1,0,2,0,0
1777226216713000,1777226216713000,1777225652689000,47.397742,8.5455943,168.54991,-0.04217416,-0.038513184,-31.36856,0.32092425,-487.9991,-0.004284332,-0.026848705,-0.024089789,-0.00011428888,-4.341242,0.08477419,0.016262472,-0.035210498,0.014325001,-0.017385928,0.0027575612,0.00028075595,-0.018938063,0.0050611896,1.8700162e-05,487.9991,0.010192871,0.0017000082,-487.9991,0.12150119,0.11373156,0.08114241,0.049519606,inf,inf,inf,inf,inf,1,1,1,1,4,2,3,2,2,0,1,1,0,2,0,0
1777226216721000,1777226216721000,1777225652689000,47.397742,8.5455943,168.54987,-0.042121805,-0.038513184,-31.36856,0.32092425,-487.9991,-0.00454564,-0.026704354,-0.023914315,5.1005627e-05,-4.341242,0.08477419,0.016262472,-0.031102607,-0.0051565603,0.012716743,0.0027537397,0.00028085057,-0.018939808,0.0050611896,1.874432e-05,487.9991,0.010375977,0.0033000167,-487.9991,0.12191408,0.113984354,0.08144327,0.04960212,inf,inf,inf,inf,inf,1,1,1,1,4,2,3,2,2,0,1,1,0,2,0,0
1777226216729000,1777226216729000,1777225652689000,47.397742,8.5455943,168.5498,-0.04203944,-0.038482666,-31.36856,0.32092425,-487.9991,-0.004581421,-0.026733534,-0.024042916,-5.0200557e-05,-4.341242,0.08477419,0.016262472,-0.0030076916,-0.03008747,-0.027105676,0.0028480345,0.00028093136,-0.018843526,0.0050611896,1.8511535e-05,487.9991,0.009246826,0.004900025,-487.9991,0.11968248,0.112605706,0.079808466,0.049147803,inf,inf,inf,inf,inf,1,1,1,1,4,2,3,2,2,0,1,1,0,2,0,0
1777226216737000,1777226216737000,1777225652689000,47.397742,8.5455943,168.54976,-0.04196335,-0.03845215,-31.36856,0.32092425,-487.9991,-0.00450584,-0.026725404,-0.024271598,-0.00025889272,-4.341242,0.08477419,0.016262472,0.010993622,-0.024980672,-0.039265487,0.0028520224,0.00028026543,-0.018837852,0.0050611896,1.8555544e-05,487.9991,0.009429932,0.006500033,-487.9991,0.12008085,0.11285474,0.0800989,0.049230892,inf,inf,inf,inf,inf,1,1,1,1,4,2,3,2,2,0,1,1,0,2,0,0
1777226216745000,1777226216745000,1777225652689000,47.397742,8.5455943,168.5497,-0.041892923,-0.03842163,-31.36856,0.32092425,-487.9991,-0.00498907,-0.026404364,-0.024501152,-0.00047558238,-4.341242,0.08477419,0.016262472,-0.05893589,0.01487414,-0.039034985,0.0028610788,0.00028036,-0.01882479,0.0050611896,1.8599589e-05,487.9991,0.009613037,0.008100041,-487.9991,0.12048415,0.11310461,0.080397554,0.049313847,inf,inf,inf,inf,inf,1,1,1,1,4,2,3,2,2,0,1,1,0,2,0,0
1777226216753000,1777226216753000,1777225652689000,47.397742,8.5455943,168.54965,-0.04182879,-0.03842163,-31.36856,0.32092425,-487.9991,-0.0056980685,-0.026488863,-0.024782173,-0.00075066014,-4.341242,0.08477419,0.016262472,-0.08722758,-0.0350987,-0.045138407,0.0028510224,0.00028045446,-0.018830912,0.0050611896,1.8643666e-05,487.9991,0.009796143,0.00970005,-487.9991,0.120890185,0.11335532,0.08069651,0.049396675,inf,inf,inf,inf,inf,1,1,1,1,4,2,3,2,2,0,1,1,0,2,0,0
1777226216761000,1777226216761000,1777225652689000,47.397742,8.5455943,168.54959,-0.04177109,-0.03842163,-31.36856,0.32092425,-487.9991,-0.005611415,-0.026307924,-0.024223564,-0.0001927907,-4.341242,0.08477419,0.016262472,0.012164222,-0.0012238505,0.060135495,0.0028220518,0.00028054908,-0.01885602,0.0050611896,1.8687784e-05,487.9991,0.009979248,0.011300058,-487.9991,0.121298976,0.11360687,0.0809966,0.049479377,inf,inf,inf,inf,inf,1,1,1,1,4,2,3,2,2,0,1,1,0,2,0,0
1777226216769000,1777226216769000,1777225652689000,47.397742,8.5455943,168.54953,-0.04171853,-0.038391113,-31.36856,0.32092425,-487.9991,-0.0055606486,-0.026023995,-0.02417665,-0.000153056,-4.341242,0.08477419,0.016262472,0.007613227,0.012331267,-0.0035152768,0.0028133248,0.0002806437,-0.018860972,0.0050611896,1.8731938e-05,487.9991,0.0101623535,0.012900067,-487.9991,0.121710524,0.11385926,0.081296265,0.049561955,inf,inf,inf,inf,inf,1,1,1,1,4,2,3,2,2,0,1,1,0,2,0,0
1777226216777000,1777226216777000,1777225652689000,47.397742,8.5455943,168.54947,-0.04167018,-0.038391113,-31.36856,0.32092425,-487.9991,-0.005607959,-0.025857389,-0.024000693,9.535928e-06,-4.341242,0.08477419,0.016262472,-0.004713627,-0.0016717812,0.0129169775,0.0027748626,0.00028073828,-0.018895738,0.0050611896,1.8776125e-05,487.9991,0.010345459,0.014500075,-487.9991,0.12212483,0.11405238,0.08159736,0.04963374,inf,inf,inf,inf,inf,1,1,1,1,4,2,3,2,2,0,1,1,0,2,0,0
1777226216785000,1777226216785000,1777225652689000,47.397742,8.5455943,168.54942,-0.041592572,-0.038360596,-31.36856,0.32092425,-487.9991,-0.005895444,-0.026175639,-0.023585666,0.00045093568,-4.341242,0.08477419,0.016262472,-0.034894165,-0.06557823,0.040898096,0.002793059,0.00028081896,-0.018873923,0.0050611896,1.854131e-05,487.9991,0.009155273,0.016100084,-487.9991,0.11987833,0.11272876,0.07995045,0.04918826,inf,inf,inf,inf,inf,1,1,1,1,4,2,3,2,2,0,1,1,0,2,0,0
1777226216793000,1777226216793000,1777225652689000,47.397742,8.5455943,168.54936,-0.041523363,-0.038330078,-31.36856,0.32092425,-487.9991,-0.0063828,-0.026132166,-0.023271246,0.0007843271,-4.341242,0.08477419,0.016262472,-0.05993165,-0.019633545,0.028670298,0.0028123644,0.00028091375,-0.018851288,0.0050611896,1.8585346e-05,487.9991,0.009338379,0.017700093,-487.9991,0.12028025,0.11297821,0.08024974,0.04927128,inf,inf,inf,inf,inf,1,1,1,1,4,2,3,2,2,0,1,1,0,2,0,0
1777226216801000,1777226216801000,1777225652689000,47.397742,8.5455943,168.5493,-0.041460283,-0.03829956,-31.36856,0.32092425,-487.9991,-0.006251678,-0.026150564,-0.023324152,0.00074325595,-4.341242,0.08477419,0.016262472,0.01726439,-0.026759056,-0.016907228,0.0027977428,0.00028024835,-0.018862644,0.0050611896,1.8629416e-05,487.9991,0.009521484,0.019300101,-487.9991,0.12068258,0.11322849,0.08053975,0.049354177,inf,inf,inf,inf,inf,1,1,1,1,4,2,3,2,2,0,1,1,0,2,0,0
1777226216809000,1777226216809000,1777225652689000,47.397742,8.5455943,168.54924,-0.041402925,-0.038269043,-31.36856,0.32092425,-487.9991,-0.006550178,-0.025847292,-0.023383787,0.000688553,-4.341242,0.08477419,0.016262472,-0.036501817,0.0141492775,-0.017419921,0.00275367,0.0002803429,-0.01890271,0.0050611896,1.8673527e-05,487.9991,0.00970459,0.02090011,-487.9991,0.121089935,0.113479614,0.080838904,0.049436938,inf,inf,inf,inf,inf,1,1,1,1,4,2,3,2,2,0,1,1,0,2,0,0
