timestamp,timestamp_sample,ref_timestamp,ref_lat,ref_lon,x,y,z,delta_xy[0],delta_xy[1],delta_z,vx,vy,vz,z_deriv,delta_vxy[0],delta_vxy[1],delta_vz,ax,ay,az,heading,heading_var,unaided_heading,delta_heading,tilt_var,ref_alt,dist_bottom,dist_bottom_var,delta_dist_bottom,eph,epv,evh,evv,vxy_max,vz_max,hagl_min,hagl_max_z,hagl_max_xy,xy_valid,z_valid,v_xy_valid,v_z_valid,xy_reset_counter,z_reset_counter,vxy_reset_counter,vz_reset_counter,heading_reset_counter,heading_good_for_control,xy_global,z_global,dist_bottom_valid,dist_bottom_reset_counter,dist_bottom_sensor_bitfield,dead_reckoning
1777227220821000,1777227220821000,1777227106893000,47.397742099999995,8.5455942,103.098,-0.03914357,0.08377075,-0.0019206639,-0.002875626,-488.1121,-0.0012738294,-0.017587073,-0.010495445,0.0048822076,-0.0017447465,0.0049493075,-6.0223043e-05,0.011060317,-0.0041953786,0.0038524156,-0.0013069744,0.00044421316,-0.0036987583,-0.0042710165,0.00037821563,488.1121,0.010009766,1e-04,-488.1121,0.11987909,0.11294424,0.07994386,0.049382735,inf,inf,inf,inf,inf,1,1,1,1,3,2,2,1,2,1,1,1,0,2,0,0
1777227220829000,1777227220829000,1777227106893000,47.397742099999995,8.5455942,103.09794,-0.039148178,0.08380127,-0.0019206639,-0.002875626,-488.1121,-0.0011089753,-0.017376043,-0.010843353,0.00451704,-0.0017447465,0.0049493075,-6.0223043e-05,0.02417486,0.0131242275,-0.04894519,-0.001300705,0.00044432087,-0.003693583,-0.0042710165,0.00037825946,488.1121,0.010009766,1e-04,-488.1121,0.120280996,0.11313665,0.08024319,0.049456496,inf,inf,inf,inf,inf,1,1,1,1,3,2,2,1,2,1,1,1,0,2,0,0
1777227220837000,1777227220837000,1777227106893000,47.397742099999995,8.5455942,103.09788,-0.03915541,0.08383179,-0.0019206639,-0.002875626,-488.1121,-0.0014537821,-0.01723695,-0.010751065,0.0045885714,-0.0017447465,0.0049493075,-6.0223043e-05,-0.039882403,0.0045378306,0.006259884,-0.0012829734,0.00044427774,-0.003676951,-0.0042710165,0.0003783014,488.1121,0.010009766,1e-04,-488.1121,0.12068527,0.11338843,0.08054172,0.049540374,inf,inf,inf,inf,inf,1,1,1,1,3,2,2,1,2,1,1,1,0,2,0,0
1777227220845000,1777227220845000,1777227106893000,47.397742099999995,8.5455942,103.09782,-0.039164778,0.08383179,-0.0019206639,-0.002875626,-488.1121,-0.0020620408,-0.017104488,-0.010707642,0.004607926,-0.0017447465,0.0049493075,-6.0223043e-05,-0.072901934,0.0040873345,0.0003268942,-0.0012073081,0.0004443854,-0.00360183,-0.0042710165,0.00037834543,488.1121,0.010009766,1e-04,-488.1121,0.121092655,0.11364105,0.08084177,0.049624,inf,inf,inf,inf,inf,1,1,1,1,3,2,2,1,2,1,1,1,0,2,0,0
1777227220853000,1777227220853000,1777227106893000,47.397742099999995,8.5455942,103.097755,-0.0391769,0.083862305,-0.0019206639,-0.002875626,-488.1121,-0.0027072825,-0.017017962,-0.010904717,0.004383622,-0.0017447465,0.0049493075,-6.0223043e-05,-0.077607684,-0.0012848176,-0.029565299,-0.001133338,0.00044449308,-0.0035284087,-0.0042710165,0.0003783895,488.1121,0.010009766,1e-04,-488.1121,0.1215028,0.11389452,0.08114156,0.049707245,inf,inf,inf,inf,inf,1,1,1,1,3,2,2,1,2,1,1,1,0,2,0,0
1777227220861000,1777227220861000,1777227106893000,47.397742099999995,8.5455942,103.09769,-0.039191265,0.083862305,-0.0019206639,-0.002875626,-488.1121,-0.0028524261,-0.016861236,-0.011099471,0.004158595,-0.0017447465,0.0049493075,-6.0223043e-05,-0.015166749,0.007849477,-0.029109882,-0.0011004366,0.0004437622,-0.0034960615,-0.0042710165,0.00037842276,488.1121,0.010009766,1e-04,-488.1121,0.12191329,0.11414883,0.081432156,0.049790636,inf,inf,inf,inf,inf,1,1,1,1,3,2,2,1,2,1,1,1,0,2,0,0
1777227220869000,1777227220869000,1777227106893000,47.397742099999995,8.5455942,103.09762,-0.039178718,0.08389282,-0.0019206639,-0.002875626,-488.1121,-0.0029966806,-0.016516514,-0.011267289,0.003984916,-0.0017447465,0.0049493075,-6.0223043e-05,-0.015028968,0.028942676,-0.026843509,-0.001105433,0.00044385213,-0.0035016378,-0.0042710165,0.00037818745,488.1121,0.010009766,1e-04,-488.1121,0.11968188,0.11282026,0.07979737,0.04934129,inf,inf,inf,inf,inf,1,1,1,1,3,2,2,1,2,1,1,1,0,2,0,0
1777227220877000,1777227220877000,1777227106893000,47.397742099999995,8.5455942,103.09754,-0.039167564,0.08392334,-0.0019206639,-0.002875626,-488.1121,-0.0030599271,-0.016318407,-0.011507658,0.0037348624,-0.0017447465,0.0049493075,-6.0223043e-05,-0.0049846848,0.011033133,-0.035720408,-0.0011823257,0.00044395952,-0.0035793046,-0.0042710165,0.00037823129,488.1121,0.010009766,1e-04,-488.1121,0.120082445,0.11307091,0.08009672,0.04942528,inf,inf,inf,inf,inf,1,1,1,1,3,2,2,1,2,1,1,1,0,2,0,0
1777227220885000,1777227220885000,1777227106893000,47.397742099999995,8.5455942,103.09747,-0.039158322,0.08392334,-0.0019206639,-0.002875626,-488.1121,-0.0030847385,-0.016035296,-0.011529575,0.0037006005,-0.0017447465,0.0049493075,-6.0223043e-05,-0.00025330152,0.022061177,-0.008262693,-0.0012415907,0.00044406718,-0.0036393437,-0.0042710165,0.00037827523,488.1121,0.010009766,1e-04,-488.1121,0.12048575,0.113263555,0.080395885,0.049498595,inf,inf,inf,inf,inf,1,1,1,1,3,2,2,1,2,1,1,1,0,2,0,0
1777227220893000,1777227220893000,1777227106893000,47.397742099999995,8.5455942,103.097404,-0.03915182,0.08395386,-0.0019206639,-0.002875626,-488.1121,-0.003176317,-0.016115502,-0.011493184,0.0037211122,-0.0017447465,0.0049493075,-6.0223043e-05,-0.008669135,-0.022959653,-0.0007920898,-0.0012424621,0.00044417474,-0.003640994,-0.0042710165,0.00037831927,488.1121,0.010009766,1e-04,-488.1121,0.12089181,0.11351576,0.080695994,0.0495821,inf,inf,inf,inf,inf,1,1,1,1,3,2,2,1,2,1,1,1,0,2,0,0
1777227220901000,1777227220901000,1777227106893000,47.397742099999995,8.5455942,103.097336,-0.039148975,0.083984375,-0.0019206639,-0.002875626,-488.1121,-0.003146884,-0.015953276,-0.011493366,0.0037016994,-0.0017447465,0.0049493075,-6.0223043e-05,0.0063885315,0.00772235,-0.0051870006,-0.0012363257,0.00044428225,-0.0036356403,-0.0042710165,0.00037836324,488.1121,0.010009766,1e-04,-488.1121,0.12130061,0.11376881,0.08099609,0.049665723,inf,inf,inf,inf,inf,1,1,1,1,3,2,2,1,2,1,1,1,0,2,0,0
1777227220909000,1777227220909000,1777227106893000,47.397742099999995,8.5455942,103.09727,-0.039148636,0.083984375,-0.0019206639,-0.002875626,-488.1121,-0.0031922297,-0.015937498,-0.011915318,0.0032572797,-0.0017447465,0.0049493075,-6.0223043e-05,-0.003030605,-0.010213765,-0.057736408,-0.0012528242,0.0004443899,-0.0036529256,-0.0042710165,0.0003784073,488.1121,0.010009766,1e-04,-488.1121,0.12171217,0.1140227,0.08129565,0.049749337,inf,inf,inf,inf,inf,1,1,1,1,3,2,2,1,2,1,1,1,0,2,0,0
1777227220917000,1777227220917000,1777227106893000,47.397742099999995,8.5455942,103.0972,-0.039153118,0.083984375,-0.0019206639,-0.002875626,-488.1121,-0.0032436466,-0.016259244,-0.011881682,0.0032652626,-0.0017447465,0.0049493075,-6.0223043e-05,-0.0038692057,-0.05204405,-0.0006211921,-0.0012448245,0.00044449748,-0.003645717,-0.0042710165,0.00037845137,488.1121,0.010009766,1e-04,-488.1121,0.12212649,0.114277445,0.081595354,0.04983284,inf,inf,inf,inf,inf,1,1,1,1,3,2,2,1,2,1,1,1,0,2,0,0
1777227220925000,1777227220925000,1777227106893000,47.397742099999995,8.5455942,103.09713,-0.03912523,0.08401489,-0.0019206639,-0.002875626,-488.1121,-0.0034083033,-0.016217016,-0.011822467,0.0033210577,-0.0017447465,0.0049493075,-6.0223043e-05,-0.01872506,-0.009593999,0.0015408731,-0.001226149,0.00044374925,-0.003627837,-0.0042710165,0.0003782031,488.1121,0.010009766,1e-04,-488.1121,0.119877726,0.11294371,0.079939224,0.049381886,inf,inf,inf,inf,inf,1,1,1,1,3,2,2,1,2,1,1,1,0,2,0,0
1777227220933000,1777227220933000,1777227106893000,47.397742099999995,8.5455942,103.09706,-0.039101128,0.08404541,-0.0019206639,-0.002875626,-488.1121,-0.0036837503,-0.01617456,-0.012061532,0.003074566,-0.0017447465,0.0049493075,-6.0223043e-05,-0.032630444,-0.009135266,-0.035543922,-0.0012223468,0.0004438567,-0.0036237873,-0.0042710165,0.0003782469,488.1121,0.010009766,1e-04,-488.1121,0.1202796,0.113136105,0.0802374,0.049455613,inf,inf,inf,inf,inf,1,1,1,1,3,2,2,1,2,1,1,1,0,2,0,0
1777227220941000,1777227220941000,1777227106893000,47.397742099999995,8.5455942,103.09699,-0.039079722,0.08404541,-0.0019206639,-0.002875626,-488.1121,-0.0038265544,-0.015850008,-0.011901687,0.0032230576,-0.0017447465,0.0049493075,-6.0223043e-05,-0.016108068,0.02654385,0.014505814,-0.0012716026,0.0004439642,-0.003672794,-0.0042710165,0.00037829092,488.1121,0.010009766,1e-04,-488.1121,0.12068422,0.11338788,0.08053635,0.04953945,inf,inf,inf,inf,inf,1,1,1,1,3,2,2,1,2,1,1,1,0,2,0,0
1777227220949000,1777227220949000,1777227106893000,47.397742099999995,8.5455942,103.09692,-0.03906019,0.08407593,-0.0019206639,-0.002875626,-488.1121,-0.0040959767,-0.015670033,-0.011794946,0.0033146457,-0.0017447465,0.0049493075,-6.0223043e-05,-0.031988543,0.0088832015,0.008048489,-0.0013305348,0.00044407172,-0.0037314761,-0.0042710165,0.00037833495,488.1121,0.010009766,1e-04,-488.1121,0.12109158,0.1136405,0.080836006,0.049623024,inf,inf,inf,inf,inf,1,1,1,1,3,2,2,1,2,1,1,1,0,2,0,0
1777227220957000,1777227220957000,1777227106893000,47.397742099999995,8.5455942,103.09685,-0.039042406,0.08407593,-0.0019206639,-0.002875626,-488.1121,-0.004531714,-0.015337357,-0.011556226,0.003534508,-0.0017447465,0.0049493075,-6.0223043e-05,-0.05283266,0.028368205,0.02472149,-0.0013629353,0.00044417928,-0.0037636133,-0.0042710165,0.00037837902,488.1121,0.010009766,1e-04,-488.1121,0.1215017,0.11389396,0.08113491,0.049706507,inf,inf,inf,inf,inf,1,1,1,1,3,2,2,1,2,1,1,1,0,2,0,0
1777227220965000,1777227220965000,1777227106893000,47.397742099999995,8.5455942,103.09677,-0.039027277,0.084106445,-0.0019206639,-0.002875626,-488.1121,-0.00474436,-0.01535546,-0.011389,0.0036792173,-0.0017447465,0.0049493075,-6.0223043e-05,-0.024996817,-0.015091163,0.01595495,-0.0013487593,0.00044428688,-0.0037491608,-0.0042710165,0.00037842314,488.1121,0.010009766,1e-04,-488.1121,0.12191457,0.114148274,0.08143449,0.04979013,inf,inf,inf,inf,inf,1,1,1,1,3,2,2,1,2,1,1,1,0,2,0,0
1777227220973000,1777227220973000,1777227106893000,47.397742099999995,8.5455942,103.096695,-0.038979277,0.08413696,-0.0019206639,-0.002875626,-488.1121,-0.00499541,-0.0151529955,-0.011504928,0.00357053,-0.0017447465,0.0049493075,-6.0223043e-05,-0.029724207,0.009643775,-0.020694451,-0.0014602772,0.00044437713,-0.0038603898,-0.0042710165,0.00037818874,488.1121,0.010009766,1e-04,-488.1121,0.11968303,0.112819724,0.07979945,0.049341027,inf,inf,inf,inf,inf,1,1,1,1,3,2,2,1,2,1,1,1,0,2,0,0
1777227220981000,1777227220981000,1777227106893000,47.397742099999995,8.5455942,103.09661,-0.03893345,0.08416748,-0.0019206639,-0.002875626,-488.1121,-0.0052926494,-0.014747347,-0.011355442,0.0037226104,-0.0017447465,0.0049493075,-6.0223043e-05,-0.035550218,0.035489272,0.012683681,-0.0015446617,0.0004444847,-0.003944691,-0.0042710165,0.00037823262,488.1121,0.010009766,1e-04,-488.1121,0.120083615,0.11307037,0.08009951,0.04942521,inf,inf,inf,inf,inf,1,1,1,1,3,2,2,1,2,1,1,1,0,2,0,0
1777227220989000,1777227220989000,1777227106893000,47.397742099999995,8.5455942,103.09653,-0.038889065,0.084198,-0.0019206639,-0.002875626,-488.1121,-0.005643213,-0.014492611,-0.011187339,0.0038888727,-0.0017447465,0.0049493075,-6.0223043e-05,-0.042269967,0.017065274,0.0151991835,-0.0015524668,0.00044459253,-0.0039523947,-0.0042710165,0.00037827657,488.1121,0.010009766,1e-04,-488.1121,0.120486945,0.11326301,0.08039852,0.049498584,inf,inf,inf,inf,inf,1,1,1,1,3,2,2,1,2,1,1,1,0,2,0,0
1777227220997000,1777227220997000,1777227106893000,47.397742099999995,8.5455942,103.09644,-0.03884762,0.084228516,-0.0019206639,-0.002875626,-488.1121,-0.005732214,-0.014331723,-0.011432485,0.0036375925,-0.0017447465,0.0049493075,-6.0223043e-05,-0.009616629,0.005797366,-0.03626663,-0.0015434432,0.0004438613,-0.0039432524,-0.0042710165,0.0003783098,488.1121,0.010009766,1e-04,-488.1121,0.12089073,0.11351521,0.08068859,0.04958211,inf,inf,inf,inf,inf,1,1,1,1,3,2,2,1,2,1,1,1,0,2,0,0
1777227221005000,1777227221005000,1777227106893000,47.397742099999995,8.5455942,103.09637,-0.03880971,0.08425903,-0.0019206639,-0.002875626,-488.1121,-0.005859154,-0.014358052,-0.011644449,0.0034153801,-0.0017447465,0.0049493075,-6.0223043e-05,-0.014406242,-0.017192682,-0.031934116,-0.0014862956,0.00044396878,-0.0038862433,-0.0042710165,0.00037835387,488.1121,0.010009766,1e-04,-488.1121,0.1212995,0.113768265,0.080988675,0.049665477,inf,inf,inf,inf,inf,1,1,1,1,3,2,2,1,2,1,1,1,0,2,0,0
1777227221013000,1777227221013000,1777227106893000,47.397742099999995,8.5455942,103.09628,-0.038775053,0.08425903,-0.0019206639,-0.002875626,-488.1121,-0.0058313487,-0.014054446,-0.011357274,0.0036883997,-0.0017447465,0.0049493075,-6.0223043e-05,0.004883218,0.024458835,0.030637717,-0.0014787524,0.0004440761,-0.003878835,-0.0042710165,0.00037839782,488.1121,0.010009766,1e-04,-488.1121,0.12171102,0.11402216,0.08128926,0.049748998,inf,inf,inf,inf,inf,1,1,1,1,3,2,2,1,2,1,1,1,0,2,0,0
1777227221021000,1777227221021000,1777227106893000,47.397742099999995,8.5455942,103.0962,-0.03874209,0.08428955,-0.0019206639,-0.002875626,-488.1121,-0.005824746,-0.013949352,-0.011199563,0.0038282438,-0.0017447465,0.0049493075,-6.0223043e-05,0.0021861368,3.7891365e-05,0.014628748,-0.0014548574,0.0004441838,-0.0038550715,-0.0042710165,0.00037844206,488.1121,0.010009766,1e-04,-488.1121,0.12212531,0.114276886,0.08159008,0.049832445,inf,inf,inf,inf,inf,1,1,1,1,3,2,2,1,2,1,1,1,0,2,0,0
1777227221029000,1777227221029000,1777227106893000,47.397742099999995,8.5455942,103.096115,-0.03869311,0.08432007,-0.0019206639,-0.002875626,-488.1121,-0.005772598,-0.013981476,-0.010978993,0.00405776,-0.0017447465,0.0049493075,-6.0223043e-05,0.007707946,-0.019002171,0.021320766,-0.0014485146,0.00044427416,-0.003848856,-0.0042710165,0.0003782046,488.1121,0.010009766,1e-04,-488.1121,0.11987884,0.11294318,0.07994386,0.049381405,inf,inf,inf,inf,inf,1,1,1,1,3,2,2,1,2,1,1,1,0,2,0,0
1777227221037000,1777227221037000,1777227106893000,47.397742099999995,8.5455942,103.09603,-0.03864779,0.0843811,-0.0019206639,-0.002875626,-488.1121,-0.00578767,-0.013923639,-0.010539884,0.004502333,-0.0017447465,0.0049493075,-6.0223043e-05,-0.00061270926,-0.007362448,0.048806887,-0.0015054656,0.00044423153,-0.0039060763,-0.0042710165,0.00037824656,488.1121,0.010009766,1e-04,-488.1121,0.12028038,0.113135576,0.08024148,0.049455095,inf,inf,inf,inf,inf,1,1,1,1,3,2,2,1,2,1,1,1,0,2,0,0
1777227221045000,1777227221045000,1777227106893000,47.397742099999995,8.5455942,103.09595,-0.038606633,0.08441162,-0.0019206639,-0.002875626,-488.1121,-0.0061435346,-0.014007341,-0.010091491,0.0049518286,-0.0017447465,0.0049493075,-6.0223043e-05,-0.04326019,-0.02462718,0.05016522,-0.0015558295,0.00044433906,-0.0039562024,-0.0042710165,0.00037829057,488.1121,0.010009766,1e-04,-488.1121,0.12068501,0.11338735,0.08054084,0.0495389,inf,inf,inf,inf,inf,1,1,1,1,3,2,2,1,2,1,1,1,0,2,0,0
1777227221053000,1777227221053000,1777227106893000,47.397742099999995,8.5455942,103.09586,-0.03857049,0.08444214,-0.0019206639,-0.002875626,-488.1121,-0.006505558,-0.01410586,-0.009979767,0.0050604534,-0.0017447465,0.0049493075,-6.0223043e-05,-0.044069186,-0.026066536,0.008273869,-0.001542145,0.00044444652,-0.0039422703,-0.0042710165,0.00037833452,488.1121,0.010009766,1e-04,-488.1121,0.121092394,0.113639966,0.080840625,0.0496227,inf,inf,inf,inf,inf,1,1,1,1,3,2,2,1,2,1,1,1,0,2,0,0
1777227221061000,1777227221061000,1777227106893000,47.397742099999995,8.5455942,103.09577,-0.0385365,0.084503174,-0.0019206639,-0.002875626,-488.1121,-0.006930667,-0.013944774,-0.01024448,0.004788649,-0.0017447465,0.0049493075,-6.0223043e-05,-0.051423352,0.0064439513,-0.038594004,-0.0015476778,0.00044371662,-0.003947546,-0.0042710165,0.00037836772,488.1121,0.010009766,1e-04,-488.1121,0.12150017,0.11389342,0.08113236,0.049706295,inf,inf,inf,inf,inf,1,1,1,1,3,2,2,1,2,1,1,1,0,2,0,0
1777227221069000,1777227221069000,1777227106893000,47.397742099999995,8.5455942,103.09568,-0.03850442,0.08453369,-0.0019206639,-0.002875626,-488.1121,-0.007116653,-0.013614685,-0.010459262,0.0045629847,-0.0017447465,0.0049493075,-6.0223043e-05,-0.021586152,0.027968027,-0.032171138,-0.0014912512,0.00044382407,-0.0038878745,-0.0042710165,0.00037841193,488.1121,0.010009766,1e-04,-488.1121,0.121913016,0.11414772,0.08143249,0.04978968,inf,inf,inf,inf,inf,1,1,1,1,3,2,2,1,2,1,1,1,0,2,0,0
1777227221077000,1777227221077000,1777227106893000,47.397742099999995,8.5455942,103.09559,-0.0384533,0.08459473,-0.0019206639,-0.002875626,-488.1121,-0.0069895736,-0.013306887,-0.010572972,0.004469063,-0.0017447465,0.0049493075,-6.0223043e-05,0.01729639,0.023334287,-0.020819714,-0.0014554862,0.00044391435,-0.003848855,-0.0042710165,0.00037817642,488.1121,0.010009766,1e-04,-488.1121,0.119681634,0.1128192,0.07979752,0.049340464,inf,inf,inf,inf,inf,1,1,1,1,3,2,2,1,2,1,1,1,0,2,0,0
1777227221085000,1777227221085000,1777227106893000,47.397742099999995,8.5455942,103.0955,-0.038405895,0.084625244,-0.0019206639,-0.002875626,-488.1121,-0.007200952,-0.013481965,-0.010833612,0.004223425,-0.0017447465,0.0049493075,-6.0223043e-05,-0.025057128,-0.0365848,-0.038973052,-0.0014099326,0.00044402166,-0.0038001859,-0.0042710165,0.00037822028,488.1121,0.010009766,1e-04,-488.1121,0.12008219,0.11306984,0.08009708,0.049424365,inf,inf,inf,inf,inf,1,1,1,1,3,2,2,1,2,1,1,1,0,2,0,0
1777227221093000,1777227221093000,1777227106893000,47.397742099999995,8.5455942,103.095406,-0.038363423,0.08468628,-0.0019206639,-0.002875626,-488.1121,-0.0071818307,-0.013461667,-0.011035331,0.0040311045,-0.0017447465,0.0049493075,-6.0223043e-05,0.0037131975,-0.0117324935,-0.03136927,-0.0013791592,0.00044412923,-0.0037663137,-0.0042710165,0.00037826423,488.1121,0.010009766,1e-04,-488.1121,0.1204855,0.113262475,0.08039597,0.049497876,inf,inf,inf,inf,inf,1,1,1,1,3,2,2,1,2,1,1,1,0,2,0,0
1777227221101000,1777227221101000,1777227106893000,47.397742099999995,8.5455942,103.095314,-0.03832639,0.0847168,-0.0019206639,-0.002875626,-488.1121,-0.0069497307,-0.013937309,-0.011226523,0.0038448793,-0.0017447465,0.0049493075,-6.0223043e-05,0.03029363,-0.07331153,-0.029853543,-0.0013929274,0.00044423662,-0.0037770006,-0.0042710165,0.00037830818,488.1121,0.010009766,1e-04,-488.1121,0.12089155,0.11351468,0.080695204,0.049581576,inf,inf,inf,inf,inf,1,1,1,1,3,2,2,1,2,1,1,1,0,2,0,0
1777227221109000,1777227221109000,1777227106893000,47.397742099999995,8.5455942,103.09523,-0.03829633,0.084747314,-0.0019206639,-0.002875626,-488.1121,-0.006802664,-0.014116066,-0.011444804,0.0036272525,-0.0017447465,0.0049493075,-6.0223043e-05,0.01962241,-0.03580291,-0.03304565,-0.0013898762,0.00044434416,-0.003770886,-0.0042710165,0.00037835224,488.1121,0.010009766,1e-04,-488.1121,0.12130035,0.11376772,0.08099432,0.0496651,inf,inf,inf,inf,inf,1,1,1,1,3,2,2,1,2,1,1,1,0,2,0,0
1777227221117000,1777227221117000,1777227106893000,47.397742099999995,8.5455942,103.095146,-0.038270917,0.08477783,-0.0019206639,-0.002875626,-488.1121,-0.0067820423,-0.0142223295,-0.011075898,0.003992609,-0.0017447465,0.0049493075,-6.0223043e-05,0.0037726392,-0.026351636,0.0405414,-0.0012975537,0.00044445173,-0.003675517,-0.0042710165,0.00037839633,488.1121,0.010009766,1e-04,-488.1121,0.121711895,0.11402161,0.081293985,0.049748532,inf,inf,inf,inf,inf,1,1,1,1,3,2,2,1,2,1,1,1,0,2,0,0
1777227221125000,1777227221125000,1777227106893000,47.397742099999995,8.5455942,103.095055,-0.038249873,0.08480835,-0.0019206639,-0.002875626,-488.1121,-0.0071488973,-0.014300985,-0.010794316,0.004266588,-0.0017447465,0.0049493075,-6.0223043e-05,-0.044704676,-0.022521134,0.02980884,-0.0012191758,0.00044455935,-0.0035941112,-0.0042710165,0.00037844048,488.1121,0.010009766,1e-04,-488.1121,0.12212621,0.114276335,0.081594676,0.04983187,inf,inf,inf,inf,inf,1,1,1,1,3,2,2,1,2,1,1,1,0,2,0,0
1777227221133000,1777227221133000,1777227106893000,47.397742099999995,8.5455942,103.09497,-0.038215287,0.084869385,-0.0019206639,-0.002875626,-488.1121,-0.0075131776,-0.014562662,-0.010599196,0.004476521,-0.0017447465,0.0049493075,-6.0223043e-05,-0.04490039,-0.047085453,0.017977783,-0.0011861273,0.00044381255,-0.0035580527,-0.0042710165,0.00037819246,488.1121,0.010009766,1e-04,-488.1121,0.11987749,0.11294265,0.07993816,0.04938077,inf,inf,inf,inf,inf,1,1,1,1,3,2,2,1,2,1,1,1,0,2,0,0
1777227221141000,1777227221141000,1777227106893000,47.397742099999995,8.5455942,103.09488,-0.038186572,0.08493042,-0.0019206639,-0.002875626,-488.1121,-0.007422751,-0.014781171,-0.010339158,0.0047475994,-0.0017447465,0.0049493075,-6.0223043e-05,0.011911368,-0.041275192,0.026250256,-0.0011328722,0.00044391994,-0.0035019754,-0.0042710165,0.00037823626,488.1121,0.010009766,1e-04,-488.1121,0.12027936,0.11313505,0.08023678,0.049454276,inf,inf,inf,inf,inf,1,1,1,1,3,2,2,1,2,1,1,1,0,2,0,0
1777227221149000,1777227221149000,1777227106893000,47.397742099999995,8.5455942,103.094795,-0.038162235,0.08496094,-0.0019206639,-0.002875626,-488.1121,-0.006997747,-0.014700141,-0.010509076,0.0045840796,-0.0017447465,0.0049493075,-6.0223043e-05,0.053705227,-0.0034339135,-0.027291475,-0.0010154921,0.00044402736,-0.0033817864,-0.0042710165,0.00037828027,488.1121,0.010009766,1e-04,-488.1121,0.12068397,0.11338681,0.08053683,0.049538136,inf,inf,inf,inf,inf,1,1,1,1,3,2,2,1,2,1,1,1,0,2,0,0
1777227221157000,1777227221157000,1777227106893000,47.397742099999995,8.5455942,103.09471,-0.03814109,0.08502197,-0.0019206639,-0.002875626,-488.1121,-0.0068157455,-0.014603511,-0.010694684,0.004400457,-0.0017447465,0.0049493075,-6.0223043e-05,0.023301752,-0.0010907096,-0.029055865,-0.0010078127,0.00044413464,-0.0033713123,-0.0042710165,0.00037832418,488.1121,0.010009766,1e-04,-488.1121,0.12109132,0.11363942,0.08083706,0.0496218,inf,inf,inf,inf,inf,1,1,1,1,3,2,2,1,2,1,1,1,0,2,0,0
1777227221165000,1777227221165000,1777227106893000,47.397742099999995,8.5455942,103.09463,-0.038122695,0.08505249,-0.0019206639,-0.002875626,-488.1121,-0.0071566184,-0.014474047,-0.010613192,0.004479678,-0.0017447465,0.0049493075,-6.0223043e-05,-0.04207868,0.0033976883,0.0045229676,-0.0010212018,0.00044424194,-0.0033819135,-0.0042710165,0.0003783681,488.1121,0.010009766,1e-04,-488.1121,0.12150144,0.113892876,0.08113636,0.049705505,inf,inf,inf,inf,inf,1,1,1,1,3,2,2,1,2,1,1,1,0,2,0,0
1777227221173000,1777227221173000,1777227106893000,47.397742099999995,8.5455942,103.09454,-0.03810615,0.08508301,-0.0019206639,-0.002875626,-488.1121,-0.007062157,-0.014201902,-0.01084106,0.0042453813,-0.0017447465,0.0049493075,-6.0223043e-05,0.01232269,0.021609452,-0.033961605,-0.0010733864,0.00044434957,-0.0034313174,-0.0042710165,0.00037841234,488.1121,0.010009766,1e-04,-488.1121,0.121914305,0.11414717,0.08143626,0.04978902,inf,inf,inf,inf,inf,1,1,1,1,3,2,2,1,2,1,1,1,0,2,0,0
1777227221181000,1777227221181000,1777227106893000,47.397742099999995,8.5455942,103.09447,-0.038067058,0.08514404,-0.0019206639,-0.002875626,-488.1121,-0.0072167837,-0.014068193,-0.01114395,0.003965342,-0.0017447465,0.0049493075,-6.0223043e-05,-0.019352917,0.0023537176,-0.044581942,-0.0011363385,0.00044444078,-0.0034914957,-0.0042710165,0.00037817704,488.1121,0.010009766,1e-04,-488.1121,0.11968278,0.11281867,0.07980079,0.04933991,inf,inf,inf,inf,inf,1,1,1,1,3,2,2,1,2,1,1,1,0,2,0,0
1777227221189000,1777227221189000,1777227106893000,47.397742099999995,8.5455942,103.09438,-0.038029425,0.08517456,-0.0019206639,-0.002875626,-488.1121,-0.007400232,-0.013598985,-0.011019412,0.0041074986,-0.0017447465,0.0049493075,-6.0223043e-05,-0.022957627,0.044711053,0.009062699,-0.0010646207,0.00044454826,-0.0034171601,-0.0042710165,0.00037822092,488.1121,0.010009766,1e-04,-488.1121,0.12008337,0.11306931,0.08009879,0.049423937,inf,inf,inf,inf,inf,1,1,1,1,3,2,2,1,2,1,1,1,0,2,0,0
1777227221197000,1777227221197000,1777227106893000,47.397742099999995,8.5455942,103.0943,-0.037992787,0.085235596,-0.0019206639,-0.002875626,-488.1121,-0.007696356,-0.013190102,-0.010785935,0.004353435,-0.0017447465,0.0049493075,-6.0223043e-05,-0.03666946,0.037688848,0.022895167,-0.0009907098,0.00044381813,-0.0033406352,-0.0042710165,0.0003782541,488.1121,0.010009766,1e-04,-488.1121,0.12048446,0.113261946,0.08038774,0.049497224,inf,inf,inf,inf,inf,1,1,1,1,3,2,2,1,2,1,1,1,0,2,0,0
1777227221205000,1777227221205000,1777227106893000,47.397742099999995,8.5455942,103.09421,-0.03795665,0.08529663,-0.0019206639,-0.002875626,-488.1121,-0.0075675286,-0.012829214,-0.0109518375,0.0041959286,-0.0017447465,0.0049493075,-6.0223043e-05,0.016436838,0.032082625,-0.026823485,-0.0009509303,0.0004439255,-0.0032989928,-0.0042710165,0.00037829814,488.1121,0.010009766,1e-04,-488.1121,0.12089047,0.11351414,0.08068688,0.049580794,inf,inf,inf,inf,inf,1,1,1,1,3,2,2,1,2,1,1,1,0,2,0,0
1777227221213000,1777227221213000,1777227106893000,47.397742099999995,8.5455942,103.094124,-0.037923317,0.08532715,-0.0019206639,-0.002875626,-488.1121,-0.008066511,-0.012884884,-0.0109294625,0.0042228065,-0.0017447465,0.0049493075,-6.0223043e-05,-0.062051896,-0.019603403,-0.0030910594,-0.00097450736,0.00044403278,-0.0033207247,-0.0042710165,0.0003783421,488.1121,0.010009766,1e-04,-488.1121,0.12129922,0.11376718,0.08098725,0.04966427,inf,inf,inf,inf,inf,1,1,1,1,3,2,2,1,2,1,1,1,0,2,0,0
1777227221221000,1777227221221000,1777227106893000,47.397742099999995,8.5455942,103.09404,-0.03789321,0.085357666,-0.0019206639,-0.002875626,-488.1121,-0.008530598,-0.01270619,-0.010847718,0.00430439,-0.0017447465,0.0049493075,-6.0223043e-05,-0.057702284,0.01006334,0.0045220363,-0.0009714594,0.0004441401,-0.003315849,-0.0042710165,0.00037838612,488.1121,0.010009766,1e-04,-488.1121,0.12171073,0.11402106,0.08128788,0.049747787,inf,inf,inf,inf,inf,1,1,1,1,3,2,2,1,2,1,1,1,0,2,0,0
1777227221229000,1777227221229000,1777227106893000,47.397742099999995,8.5455942,103.09395,-0.03786586,0.08538818,-0.0019206639,-0.002875626,-488.1121,-0.0089147305,-0.012722394,-0.010838355,0.0043091457,-0.0017447465,0.0049493075,-6.0223043e-05,-0.0477254,-0.013936529,-0.0043390314,-0.0010097189,0.0004442476,-0.0033523778,-0.0042710165,0.00037843027,488.1121,0.010009766,1e-04,-488.1121,0.122125015,0.11427579,0.08158869,0.049831335,inf,inf,inf,inf,inf,1,1,1,1,3,2,2,1,2,1,1,1,0,2,0,0
1777227221237000,1777227221237000,1777227106893000,47.397742099999995,8.5455942,103.093864,-0.037825402,0.08544922,-0.0019206639,-0.002875626,-488.1121,-0.00886402,-0.012652448,-0.011041075,0.004127912,-0.0017447465,0.0049493075,-6.0223043e-05,0.005439551,-0.004619558,-0.03199931,-0.0010797792,0.00044418895,-0.0034208046,-0.0042710165,0.0003781911,488.1121,0.010009766,1e-04,-488.1121,0.11987823,0.11294213,0.079940915,0.049380135,inf,inf,inf,inf,inf,1,1,1,1,3,2,2,1,2,1,1,1,0,2,0,0
1777227221245000,1777227221245000,1777227106893000,47.397742099999995,8.5455942,103.09379,-0.037786536,0.085510254,-0.0019206639,-0.002875626,-488.1121,-0.008833956,-0.0123087205,-0.01078252,0.0044027995,-0.0017447465,0.0049493075,-6.0223043e-05,0.002875328,0.029998144,0.025874933,-0.0011647717,0.00044429625,-0.0035049142,-0.0042710165,0.00037823484,488.1121,0.010009766,1e-04,-488.1121,0.12028012,0.113134526,0.08024066,0.04945375,inf,inf,inf,inf,inf,1,1,1,1,3,2,2,1,2,1,1,1,0,2,0,0
1777227221253000,1777227221253000,1777227106893000,47.397742099999995,8.5455942,103.093704,-0.037749518,0.08557129,-0.0019206639,-0.002875626,-488.1121,-0.009147793,-0.012106683,-0.010404657,0.0047920793,-0.0017447465,0.0049493075,-6.0223043e-05,-0.04009328,0.012673156,0.040996816,-0.0011493566,0.0004444036,-0.0034887092,-0.0042710165,0.00037827875,488.1121,0.010009766,1e-04,-488.1121,0.12068474,0.11338628,0.080540724,0.049537584,inf,inf,inf,inf,inf,1,1,1,1,3,2,2,1,2,1,1,1,0,2,0,0
1777227221261000,1777227221261000,1777227106893000,47.397742099999995,8.5455942,103.09363,-0.03771453,0.08560181,-0.0019206639,-0.002875626,-488.1121,-0.009139128,-0.011982345,-0.010377958,0.004825509,-0.0017447465,0.0049493075,-6.0223043e-05,0.00023448955,0.003326675,-0.0026966443,-0.0011364054,0.0004445111,-0.0034750607,-0.0042710165,0.0003783228,488.1121,0.010009766,1e-04,-488.1121,0.121092126,0.113638885,0.08084112,0.04962133,inf,inf,inf,inf,inf,1,1,1,1,3,2,2,1,2,1,1,1,0,2,0,0
1777227221269000,1777227221269000,1777227106893000,47.397742099999995,8.5455942,103.093544,-0.037682906,0.08566284,-0.0019206639,-0.002875626,-488.1121,-0.009323324,-0.01191697,-0.010371397,0.004834271,-0.0017447465,0.0049493075,-6.0223043e-05,-0.023849333,-0.0036752806,-0.0050175,-0.0011351439,0.00044378167,-0.0034731943,-0.0042710165,0.00037835605,488.1121,0.010009766,1e-04,-488.1121,0.121499896,0.11389234,0.08113084,0.049704906,inf,inf,inf,inf,inf,1,1,1,1,3,2,2,1,2,1,1,1,0,2,0,0
1777227221277000,1777227221277000,1777227106893000,47.397742099999995,8.5455942,103.09346,-0.03765369,0.08569336,-0.0019206639,-0.002875626,-488.1121,-0.00915515,-0.011810941,-0.010266476,0.004936947,-0.0017447465,0.0049493075,-6.0223043e-05,0.02020681,0.0017607561,0.0074682753,-0.0011558217,0.00044388877,-0.0034934324,-0.0042710165,0.00037840003,488.1121,0.010009766,1e-04,-488.1121,0.12191273,0.11414663,0.08143021,0.049788166,inf,inf,inf,inf,inf,1,1,1,1,3,2,2,1,2,1,1,1,0,2,0,0
1777227221285000,1777227221285000,1777227106893000,47.397742099999995,8.5455942,103.09338,-0.03759524,0.085754395,-0.0019206639,-0.002875626,-488.1121,-0.009123307,-0.011844134,-0.010294006,0.004937159,-0.0017447465,0.0049493075,-6.0223043e-05,0.0024642963,-0.018120581,-0.010358634,-0.0011556854,0.00044397986,-0.0034929481,-0.0042710165,0.0003781651,488.1121,0.010009766,1e-04,-488.1121,0.119681396,0.11281816,0.07979496,0.0493388,inf,inf,inf,inf,inf,1,1,1,1,3,2,2,1,2,1,1,1,0,2,0,0
1777227221293000,1777227221293000,1777227106893000,47.397742099999995,8.5455942,103.09331,-0.037540678,0.08584595,-0.0019206639,-0.002875626,-488.1121,-0.00959109,-0.011768724,-0.01029926,0.0049541206,-0.0017447465,0.0049493075,-6.0223043e-05,-0.059958696,-0.0041354084,-0.0073523256,-0.0011893334,0.0004440872,-0.003526521,-0.0042710165,0.00037820905,488.1121,0.010009766,1e-04,-488.1121,0.12008195,0.11306878,0.0800934,0.049422804,inf,inf,inf,inf,inf,1,1,1,1,3,2,2,1,2,1,1,1,0,2,0,0
1777227221301000,1777227221301000,1777227106893000,47.397742099999995,8.5455942,103.09322,-0.03748913,0.08590698,-0.0019206639,-0.002875626,-488.1121,-0.0096997125,-0.011555199,-0.010302512,0.004968738,-0.0017447465,0.0049493075,-6.0223043e-05,-0.015031595,0.013530941,-0.006907619,-0.0012076078,0.0004441946,-0.003544806,-0.0042710165,0.0003782529,488.1121,0.010009766,1e-04,-488.1121,0.12048524,0.11326141,0.08039335,0.049496535,inf,inf,inf,inf,inf,1,1,1,1,3,2,2,1,2,1,1,1,0,2,0,0
1777227221309000,1777227221309000,1777227106893000,47.397742099999995,8.5455942,103.09315,-0.037439838,0.0859375,-0.0019206639,-0.002875626,-488.1121,-0.009483422,-0.011416351,-0.010350573,0.0049334103,-0.0017447465,0.0049493075,-6.0223043e-05,0.025614109,0.0045880857,-0.012299045,-0.0012684922,0.00044430202,-0.0036057867,-0.0042710165,0.00037829694,488.1121,0.010009766,1e-04,-488.1121,0.12089128,0.113513604,0.08069352,0.04958043,inf,inf,inf,inf,inf,1,1,1,1,3,2,2,1,2,1,1,1,0,2,0,0
1777227221317000,1777227221317000,1777227106893000,47.397742099999995,8.5455942,103.09306,-0.037393123,0.085998535,-0.0019206639,-0.002875626,-488.1121,-0.00935503,-0.011187428,-0.01028089,0.0050108903,-0.0017447465,0.0049493075,-6.0223043e-05,0.014660994,0.016223151,0.0026226041,-0.0012974222,0.00044440947,-0.0036348985,-0.0042710165,0.000378341,488.1121,0.010009766,1e-04,-488.1121,0.12130007,0.11376664,0.080993086,0.049663935,inf,inf,inf,inf,inf,1,1,1,1,3,2,2,1,2,1,1,1,0,2,0,0
1777227221325000,1777227221325000,1777227106893000,47.397742099999995,8.5455942,103.09299,-0.037348542,0.08605957,-0.0019206639,-0.002875626,-488.1121,-0.009299299,-0.011009125,-0.010466213,0.004828629,-0.0017447465,0.0049493075,-6.0223043e-05,0.005605267,0.010263318,-0.0290554,-0.0012536632,0.0004445171,-0.0035914057,-0.0042710165,0.00037838524,488.1121,0.010009766,1e-04,-488.1121,0.12171162,0.11402052,0.0812939,0.04974758,inf,inf,inf,inf,inf,1,1,1,1,3,2,2,1,2,1,1,1,0,2,0,0
1777227221333000,1777227221333000,1777227106893000,47.397742099999995,8.5455942,103.09292,-0.037305634,0.08609009,-0.0019206639,-0.002875626,-488.1121,-0.009253773,-0.010788871,-0.010543145,0.0047502653,-0.0017447465,0.0049493075,-6.0223043e-05,0.0035752608,0.01573962,-0.015313736,-0.0013055314,0.00044378807,-0.0036436252,-0.0042710165,0.0003784184,488.1121,0.010009766,1e-04,-488.1121,0.12212348,0.11427524,0.08158558,0.04983093,inf,inf,inf,inf,inf,1,1,1,1,3,2,2,1,2,1,1,1,0,2,0,0
1777227221341000,1777227221341000,1777227106893000,47.397742099999995,8.5455942,103.09284,-0.037231892,0.08615112,-0.0019206639,-0.002875626,-488.1121,-0.009430306,-0.010322475,-0.010103946,0.0052150628,-0.0017447465,0.0049493075,-6.0223043e-05,-0.02478976,0.04419864,0.048022248,-0.001297333,0.00044387882,-0.0036352405,-0.0042710165,0.00037818094,488.1121,0.010009766,1e-04,-488.1121,0.11987721,0.11294161,0.0799387,0.04937992,inf,inf,inf,inf,inf,1,1,1,1,3,2,2,1,2,1,1,1,0,2,0,0
1777227221349000,1777227221349000,1777227106893000,47.397742099999995,8.5455942,103.09277,-0.03716029,0.08621216,-0.0019206639,-0.002875626,-488.1121,-0.009303993,-0.010245261,-0.0097270105,0.005612243,-0.0017447465,0.0049493075,-6.0223043e-05,0.013127463,-0.0040317243,0.040445007,-0.0013318316,0.000443986,-0.0036698063,-0.0042710165,0.00037822465,488.1121,0.010009766,1e-04,-488.1121,0.12027909,0.113134,0.080237195,0.04945347,inf,inf,inf,inf,inf,1,1,1,1,3,2,2,1,2,1,1,1,0,2,0,0
1777227221357000,1777227221357000,1777227106893000,47.397742099999995,8.5455942,103.092705,-0.037092373,0.08630371,-0.0019206639,-0.002875626,-488.1121,-0.009464489,-0.010177531,-0.0096625965,0.0056917234,-0.0017447465,0.0049493075,-6.0223043e-05,-0.022660397,-0.0048156157,0.0015944241,-0.0013043436,0.00044409317,-0.003642466,-0.0042710165,0.00037826854,488.1121,0.010009766,1e-04,-488.1121,0.1206837,0.11338575,0.08053715,0.049537465,inf,inf,inf,inf,inf,1,1,1,1,3,2,2,1,2,1,1,1,0,2,0,0
1777227221365000,1777227221365000,1777227106893000,47.397742099999995,8.5455942,103.09263,-0.03702783,0.086364746,-0.0019206639,-0.002875626,-488.1121,-0.00944758,-0.010078995,-0.009619401,0.005745012,-0.0017447465,0.0049493075,-6.0223043e-05,-0.00043038288,-0.00057128817,-0.00084936613,-0.0013415845,0.00044420056,-0.0036799144,-0.0042710165,0.0003783126,488.1121,0.010009766,1e-04,-488.1121,0.12109105,0.11363835,0.08083663,0.049620904,inf,inf,inf,inf,inf,1,1,1,1,3,2,2,1,2,1,1,1,0,2,0,0
1777227221373000,1777227221373000,1777227106893000,47.397742099999995,8.5455942,103.09256,-0.036967125,0.08639526,-0.0019206639,-0.002875626,-488.1121,-0.009505775,-0.010103331,-0.009538802,0.0058308984,-0.0017447465,0.0049493075,-6.0223043e-05,-0.009765582,-0.015553964,0.0040284353,-0.0013819118,0.00044430787,-0.0037205094,-0.0042710165,0.0003783566,488.1121,0.010009766,1e-04,-488.1121,0.12150116,0.113891795,0.081136264,0.0497043,inf,inf,inf,inf,inf,1,1,1,1,3,2,2,1,2,1,1,1,0,2,0,0
1777227221381000,1777227221381000,1777227106893000,47.397742099999995,8.5455942,103.09248,-0.03691061,0.0864563,-0.0019206639,-0.002875626,-488.1121,-0.009949103,-0.010179093,-0.009516484,0.005853866,-0.0017447465,0.0049493075,-6.0223043e-05,-0.057853915,-0.021615086,-0.00305986,-0.0013414492,0.0004444152,-0.003680374,-0.0042710165,0.00037840064,488.1121,0.010009766,1e-04,-488.1121,0.12191403,0.11414609,0.081436396,0.049787562,inf,inf,inf,inf,inf,1,1,1,1,3,2,2,1,2,1,1,1,0,2,0,0
1777227221389000,1777227221389000,1777227106893000,47.397742099999995,8.5455942,103.092415,-0.036835507,0.086517334,-0.0019206639,-0.002875626,-488.1121,-0.009973344,-0.010172112,-0.0096118925,0.0057799686,-0.0017447465,0.0049493075,-6.0223043e-05,-0.006261917,-0.013031799,-0.01873588,-0.0013081626,0.00044450708,-0.0036474718,-0.0042710165,0.00037816493,488.1121,0.010009766,1e-04,-488.1121,0.11968251,0.112817645,0.07980197,0.049338497,inf,inf,inf,inf,inf,1,1,1,1,3,2,2,1,2,1,1,1,0,2,0,0
1777227221397000,1777227221397000,1777227106893000,47.397742099999995,8.5455942,103.09235,-0.036764268,0.08660889,-0.0019206639,-0.002875626,-488.1121,-0.009840918,-0.010125882,-0.009407799,0.0060003363,-0.0017447465,0.0049493075,-6.0223043e-05,0.013398284,-0.0077151977,0.018920282,-0.0012823939,0.0004446146,-0.0036222725,-0.0042710165,0.0003782089,488.1121,0.010009766,1e-04,-488.1121,0.1200831,0.11306827,0.08010046,0.049422607,inf,inf,inf,inf,inf,1,1,1,1,3,2,2,1,2,1,1,1,0,2,0,0
1777227221405000,1777227221405000,1777227106893000,47.397742099999995,8.5455942,103.09228,-0.03669633,0.08666992,-0.0019206639,-0.002875626,-488.1121,-0.009790609,-0.009989853,-0.009244514,0.0061727716,-0.0017447465,0.0049493075,-6.0223043e-05,0.0031305433,0.0038101568,0.014088116,-0.0012734757,0.00044388478,-0.0036139581,-0.0042710165,0.00037824208,488.1121,0.010009766,1e-04,-488.1121,0.12048419,0.11326089,0.080389604,0.04949597,inf,inf,inf,inf,inf,1,1,1,1,3,2,2,1,2,1,1,1,0,2,0,0
1777227221413000,1777227221413000,1777227106893000,47.397742099999995,8.5455942,103.0922,-0.036631256,0.08673096,-0.0019206639,-0.002875626,-488.1121,-0.010093664,-0.009903307,-0.009484398,0.005937119,-0.0017447465,0.0049493075,-6.0223043e-05,-0.04096886,-0.001980772,-0.036103647,-0.0012811533,0.00044399206,-0.003621507,-0.0042710165,0.00037828612,488.1121,0.010009766,1e-04,-488.1121,0.12089021,0.113513075,0.08068913,0.049579766,inf,inf,inf,inf,inf,1,1,1,1,3,2,2,1,2,1,1,1,0,2,0,0
1777227221421000,1777227221421000,1777227106893000,47.397742099999995,8.5455942,103.09213,-0.03656917,0.086761475,-0.0019206639,-0.002875626,-488.1121,-0.010146755,-0.009733826,-0.00969795,0.0057230587,-0.0017447465,0.0049493075,-6.0223043e-05,-0.009655028,0.008769464,-0.032613516,-0.0012409019,0.0004440994,-0.0035811563,-0.0042710165,0.0003783302,488.1121,0.010009766,1e-04,-488.1121,0.12129897,0.113766104,0.080988914,0.049663324,inf,inf,inf,inf,inf,1,1,1,1,3,2,2,1,2,1,1,1,0,2,0,0
1777227221429000,1777227221429000,1777227106893000,47.397742099999995,8.5455942,103.092064,-0.03651026,0.08682251,-0.0019206639,-0.002875626,-488.1121,-0.009708111,-0.009697976,-0.00975497,0.005660953,-0.0017447465,0.0049493075,-6.0223043e-05,0.051882245,-0.007567421,-0.012854113,-0.0012430538,0.00044420676,-0.0035832364,-0.0042710165,0.00037837433,488.1121,0.010009766,1e-04,-488.1121,0.12171049,0.114019975,0.08128887,0.04974695,inf,inf,inf,inf,inf,1,1,1,1,3,2,2,1,2,1,1,1,0,2,0,0
1777227221437000,1777227221437000,1777227106893000,47.397742099999995,8.5455942,103.09199,-0.036454264,0.08685303,-0.0019206639,-0.002875626,-488.1121,-0.010296395,-0.009337971,-0.009612807,0.005793615,-0.0017447465,0.0049493075,-6.0223043e-05,-0.07644244,0.033475515,0.012230593,-0.0013167228,0.00044416447,-0.0036568563,-0.0042710165,0.00037841644,488.1121,0.010009766,1e-04,-488.1121,0.12212435,0.11427469,0.08158768,0.049830336,inf,inf,inf,inf,inf,1,1,1,1,3,2,2,1,2,1,1,1,0,2,0,0
1777227221445000,1777227221445000,1777227106893000,47.397742099999995,8.5455942,103.091934,-0.036372345,0.08691406,-0.0019206639,-0.002875626,-488.1121,-0.010418923,-0.0095397495,-0.009448537,0.0059613944,-0.0017447465,0.0049493075,-6.0223043e-05,-0.019641059,-0.03878315,0.014334916,-0.0012953412,0.0004442561,-0.003634389,-0.0042710165,0.0003781793,488.1121,0.010009766,1e-04,-488.1121,0.119878,0.11294109,0.079940885,0.049379088,inf,inf,inf,inf,inf,1,1,1,1,3,2,2,1,2,1,1,1,0,2,0,0
1777227221453000,1777227221453000,1777227106893000,47.397742099999995,8.5455942,103.09187,-0.03629659,0.08694458,-0.0019206639,-0.002875626,-488.1121,-0.010460354,-0.009766375,-0.009539731,0.0058689695,-0.0017447465,0.0049493075,-6.0223043e-05,-0.0094022425,-0.04148556,-0.017384997,-0.0013331432,0.00044436357,-0.0036712654,-0.0042710165,0.00037822325,488.1121,0.010009766,1e-04,-488.1121,0.12027989,0.11313347,0.080240086,0.04945267,inf,inf,inf,inf,inf,1,1,1,1,3,2,2,1,2,1,1,1,0,2,0,0
1777227221461000,1777227221461000,1777227106893000,47.397742099999995,8.5455942,103.09181,-0.036226336,0.087005615,-0.0019206639,-0.002875626,-488.1121,-0.01039653,-0.009820497,-0.00963833,0.0057645934,-0.0017447465,0.0049493075,-6.0223043e-05,0.0038524533,-0.019527284,-0.018116085,-0.0013888592,0.00044447108,-0.0037260659,-0.0042710165,0.00037826737,488.1121,0.010009766,1e-04,-488.1121,0.12068452,0.113385215,0.0805398,0.04953664,inf,inf,inf,inf,inf,1,1,1,1,3,2,2,1,2,1,1,1,0,2,0,0
1777227221469000,1777227221469000,1777227106893000,47.397742099999995,8.5455942,103.09175,-0.0361608,0.08703613,-0.0019206639,-0.002875626,-488.1121,-0.0104790935,-0.009627605,-0.009892833,0.0054999366,-0.0017447465,0.0049493075,-6.0223043e-05,-0.014334558,0.012027091,-0.037415415,-0.0015019861,0.00044374244,-0.0038382858,-0.0042710165,0.0003783006,488.1121,0.010009766,1e-04,-488.1121,0.12108957,0.11363781,0.08083015,0.049620464,inf,inf,inf,inf,inf,1,1,1,1,3,2,2,1,2,1,1,1,0,2,0,0
1777227221477000,1777227221477000,1777227106893000,47.397742099999995,8.5455942,103.09169,-0.03609852,0.08706665,-0.0019206639,-0.002875626,-488.1121,-0.010774909,-0.009687276,-0.01018071,0.005197713,-0.0017447465,0.0049493075,-6.0223043e-05,-0.040897284,-0.019180955,-0.04140334,-0.0015094435,0.0004438497,-0.00384716,-0.0042710165,0.0003783448,488.1121,0.010009766,1e-04,-488.1121,0.12149965,0.11389125,0.081130624,0.049704112,inf,inf,inf,inf,inf,1,1,1,1,3,2,2,1,2,1,1,1,0,2,0,0
1777227221485000,1777227221485000,1777227106893000,47.397742099999995,8.5455942,103.09162,-0.036040388,0.08709717,-0.0019206639,-0.002875626,-488.1121,-0.011025447,-0.009563202,-0.010341739,0.0050183358,-0.0017447465,0.0049493075,-6.0223043e-05,-0.035143886,0.0041388646,-0.025369225,-0.0014806832,0.00044395676,-0.0038198195,-0.0042710165,0.0003783888,488.1121,0.010009766,1e-04,-488.1121,0.12191248,0.11414554,0.0814311,0.049787633,inf,inf,inf,inf,inf,1,1,1,1,3,2,2,1,2,1,1,1,0,2,0,0
1777227221493000,1777227221493000,1777227106893000,47.397742099999995,8.5455942,103.09158,-0.035956677,0.0871582,-0.0019206639,-0.002875626,-488.1121,-0.011161543,-0.009152069,-0.010188342,0.005164731,-0.0017447465,0.0049493075,-6.0223043e-05,-0.022682436,0.0382138,0.013347249,-0.0014327784,0.0004440481,-0.0037733368,-0.0042710165,0.00037815367,488.1121,0.010009766,1e-04,-488.1121,0.119681165,0.112817116,0.07979532,0.04933854,inf,inf,inf,inf,inf,1,1,1,1,3,2,2,1,2,1,1,1,0,2,0,0
1777227221501000,1777227221501000,1777227106893000,47.397742099999995,8.5455942,103.09154,-0.035876274,0.08718872,-0.0019206639,-0.002875626,-488.1121,-0.010901333,-0.009386838,-0.0099331215,0.0054095057,-0.0017447465,0.0049493075,-6.0223043e-05,0.026989227,-0.042128906,0.026265157,-0.001471119,0.0004441554,-0.0038132467,-0.0042710165,0.00037819764,488.1121,0.010009766,1e-04,-488.1121,0.120081715,0.11306774,0.080093496,0.049422607,inf,inf,inf,inf,inf,1,1,1,1,3,2,2,1,2,1,1,1,0,2,0,0
1777227221509000,1777227221509000,1777227106893000,47.397742099999995,8.5455942,103.0915,-0.035802227,0.08721924,-0.0019206639,-0.002875626,-488.1121,-0.010560685,-0.009470488,-0.00946966,0.0058591524,-0.0017447465,0.0049493075,-6.0223043e-05,0.0371756,-0.02285398,0.052486543,-0.0014015199,0.0004442628,-0.003745227,-0.0042710165,0.00037824162,488.1121,0.010009766,1e-04,-488.1121,0.12048501,0.11326036,0.08039262,0.049496,inf,inf,inf,inf,inf,1,1,1,1,3,2,2,1,2,1,1,1,0,2,0,0
1777227221517000,1777227221517000,1777227106893000,47.397742099999995,8.5455942,103.09146,-0.03573181,0.087249756,-0.0019206639,-0.002875626,-488.1121,-0.010243498,-0.009363623,-0.00886493,0.0064468225,-0.0017447465,0.0049493075,-6.0223043e-05,0.03437418,0.0013304197,0.07032416,-0.0013585882,0.00044437015,-0.003703882,-0.0042710165,0.00037828565,488.1121,0.010009766,1e-04,-488.1121,0.120891035,0.113512546,0.08069215,0.049579784,inf,inf,inf,inf,inf,1,1,1,1,3,2,2,1,2,1,1,1,0,2,0,0
1777227221525000,1777227221525000,1777227106893000,47.397742099999995,8.5455942,103.09142,-0.03566476,0.08728027,-0.0019206639,-0.002875626,-488.1121,-0.010153112,-0.009263852,-0.009046529,0.006245032,-0.0017447465,0.0049493075,-6.0223043e-05,0.006152951,0.0008047627,-0.027792992,-0.0013455055,0.00044447737,-0.0036923913,-0.0042710165,0.0003783296,488.1121,0.010009766,1e-04,-488.1121,0.12129981,0.113765575,0.08099182,0.04966337,inf,inf,inf,inf,inf,1,1,1,1,3,2,2,1,2,1,1,1,0,2,0,0
1777227221533000,1777227221533000,1777227106893000,47.397742099999995,8.5455942,103.091385,-0.035600066,0.08731079,-0.0019206639,-0.002875626,-488.1121,-0.010110917,-0.008999046,-0.009053056,0.0062152958,-0.0017447465,0.0049493075,-6.0223043e-05,0.00025114784,0.021784028,-0.0057397406,-0.0013675294,0.00044458467,-0.0037160115,-0.0042710165,0.00037837363,488.1121,0.010009766,1e-04,-488.1121,0.12171135,0.11401945,0.08129177,0.04974662,inf,inf,inf,inf,inf,1,1,1,1,3,2,2,1,2,1,1,1,0,2,0,0
1777227221541000,1777227221541000,1777227106893000,47.397742099999995,8.5455942,103.09135,-0.035538863,0.08734131,-0.0019206639,-0.002875626,-488.1121,-0.010276635,-0.009223798,-0.009249697,0.005992559,-0.0017447465,0.0049493075,-6.0223043e-05,-0.025683288,-0.039106082,-0.029339919,-0.001381213,0.0004438558,-0.0037312936,-0.0042710165,0.0003784068,488.1121,0.010009766,1e-04,-488.1121,0.122123204,0.11427417,0.08158294,0.04982998,inf,inf,inf,inf,inf,1,1,1,1,3,2,2,1,2,1,1,1,0,2,0,0
1777227221549000,1777227221549000,1777227106893000,47.397742099999995,8.5455942,103.09133,-0.035448395,0.087371826,-0.0019206639,-0.002875626,-488.1121,-0.010283873,-0.009000638,-0.009401535,0.0058230977,-0.0017447465,0.0049493075,-6.0223043e-05,-0.007685719,0.014716302,-0.024240462,-0.0014283557,0.00044394674,-0.0037797918,-0.0042710165,0.00037816996,488.1121,0.010009766,1e-04,-488.1121,0.119876996,0.11294058,0.07993612,0.049379032,inf,inf,inf,inf,inf,1,1,1,1,3,2,2,1,2,1,1,1,0,2,0,0
1777227221557000,1777227221557000,1777227106893000,47.397742099999995,8.5455942,103.09131,-0.035360362,0.087402344,-0.0019206639,-0.002875626,-488.1121,-0.010183209,-0.008701056,-0.009109635,0.0060952404,-0.0017447465,0.0049493075,-6.0223043e-05,0.005969711,0.02466311,0.031358093,-0.0014973835,0.00044405408,-0.0038503262,-0.0042710165,0.00037821394,488.1121,0.010009766,1e-04,-488.1121,0.12027886,0.11313296,0.08023491,0.049452662,inf,inf,inf,inf,inf,1,1,1,1,3,2,2,1,2,1,1,1,0,2,0,0
1777227221565000,1777227221565000,1777227106893000,47.397742099999995,8.5455942,103.09129,-0.035272542,0.08746338,-0.0019206639,-0.002875626,-488.1121,-0.010240033,-0.008058552,-0.008509281,0.006672792,-0.0017447465,0.0049493075,-6.0223043e-05,-0.01355131,0.06790622,0.07008481,-0.0014843969,0.00044416124,-0.0038388418,-0.0042710165,0.0003782579,488.1121,0.010009766,1e-04,-488.1121,0.120683454,0.11338471,0.08053485,0.049536344,inf,inf,inf,inf,inf,1,1,1,1,3,2,2,1,2,1,1,1,0,2,0,0
1777227221573000,1777227221573000,1777227106893000,47.397742099999995,8.5455942,103.09127,-0.035185575,0.0874939,-0.0019206639,-0.002875626,-488.1121,-0.010377105,-0.007808654,-0.008224237,0.0069321715,-0.0017447465,0.0049493075,-6.0223043e-05,-0.02342171,0.019197868,0.030836089,-0.0014640001,0.00044426866,-0.003819962,-0.0042710165,0.00037830207,488.1121,0.010009766,1e-04,-488.1121,0.12109081,0.113637306,0.08083512,0.049620047,inf,inf,inf,inf,inf,1,1,1,1,3,2,2,1,2,1,1,1,0,2,0,0
1777227221581000,1777227221581000,1777227106893000,47.397742099999995,8.5455942,103.09125,-0.035100926,0.087524414,-0.0019206639,-0.002875626,-488.1121,-0.010676135,-0.0075095054,-0.008323548,0.0068044844,-0.0017447465,0.0049493075,-6.0223043e-05,-0.04350734,0.025715876,-0.017048324,-0.0014379548,0.00044437582,-0.0037954464,-0.0042710165,0.000378346,488.1121,0.010009766,1e-04,-488.1121,0.12150091,0.113890745,0.08113546,0.04970384,inf,inf,inf,inf,inf,1,1,1,1,3,2,2,1,2,1,1,1,0,2,0,0
1777227221589000,1777227221589000,1777227106893000,47.397742099999995,8.5455942,103.091225,-0.035018004,0.08755493,-0.0019206639,-0.002875626,-488.1121,-0.010778811,-0.0073408554,-0.008203502,0.0068935473,-0.0017447465,0.0049493075,-6.0223043e-05,-0.018810235,0.0097550955,0.010527204,-0.0014271528,0.0004444831,-0.0037861874,-0.0042710165,0.00037839008,488.1121,0.010009766,1e-04,-488.1121,0.12191377,0.114145026,0.08143517,0.04978707,inf,inf,inf,inf,inf,1,1,1,1,3,2,2,1,2,1,1,1,0,2,0,0
1777227221597000,1777227221597000,1777227106893000,47.397742099999995,8.5455942,103.09121,-0.034914028,0.08758545,-0.0019206639,-0.002875626,-488.1121,-0.011024745,-0.007338137,-0.007913849,0.007166949,-0.0017447465,0.0049493075,-6.0223043e-05,-0.0379654,-0.012646554,0.031011177,-0.0014825555,0.0004445751,-0.0038431464,-0.0042710165,0.00037815506,488.1121,0.010009766,1e-04,-488.1121,0.11968229,0.11281663,0.07979982,0.049337838,inf,inf,inf,inf,inf,1,1,1,1,3,2,2,1,2,1,1,1,0,2,0,0
1777227221605000,1777227221605000,1777227106893000,47.397742099999995,8.5455942,103.091194,-0.03481356,0.087646484,-0.0019206639,-0.002875626,-488.1121,-0.01107731,-0.0069305194,-0.008020478,0.0070409733,-0.0017447465,0.0049493075,-6.0223043e-05,-0.013853799,0.03864031,-0.018352175,-0.0014414637,0.0004438463,-0.0038037694,-0.0042710165,0.0003781884,488.1121,0.010009766,1e-04,-488.1121,0.12008069,0.11306725,0.08009004,0.049421735,inf,inf,inf,inf,inf,1,1,1,1,3,2,2,1,2,1,1,1,0,2,0,0
1777227221613000,1777227221613000,1777227106893000,47.397742099999995,8.5455942,103.09117,-0.034716353,0.087677,-0.0019206639,-0.002875626,-488.1121,-0.011161362,-0.0069511156,-0.008279263,0.006760903,-0.0017447465,0.0049493075,-6.0223043e-05,-0.01761258,-0.014519724,-0.037246846,-0.0013822685,0.0004439535,-0.0037487107,-0.0042710165,0.00037823227,488.1121,0.010009766,1e-04,-488.1121,0.12048396,0.11325987,0.08038961,0.04949521,inf,inf,inf,inf,inf,1,1,1,1,3,2,2,1,2,1,1,1,0,2,0,0
1777227221621000,1777227221621000,1777227106893000,47.397742099999995,8.5455942,103.091156,-0.034622695,0.08770752,-0.0019206639,-0.002875626,-488.1121,-0.011044037,-0.006813025,-0.00839679,0.00661927,-0.0017447465,0.0049493075,-6.0223043e-05,0.0077339606,0.0056727966,-0.019426456,-0.0013984216,0.00044406083,-0.0037690366,-0.0042710165,0.00037827643,488.1121,0.010009766,1e-04,-488.1121,0.12088997,0.11351204,0.08068982,0.04957896,inf,inf,inf,inf,inf,1,1,1,1,3,2,2,1,2,1,1,1,0,2,0,0
1777227221629000,1777227221629000,1777227106893000,47.397742099999995,8.5455942,103.09113,-0.03453443,0.08773804,-0.0019206639,-0.002875626,-488.1121,-0.011062047,-0.0072561223,-0.008531727,0.0064566145,-0.0017447465,0.0049493075,-6.0223043e-05,-0.009013064,-0.066617824,-0.021444166,-0.0014551006,0.0004441679,-0.0038299246,-0.0042710165,0.00037832037,488.1121,0.010009766,1e-04,-488.1121,0.12129873,0.11376507,0.08099029,0.04966241,inf,inf,inf,inf,inf,1,1,1,1,3,2,2,1,2,1,1,1,0,2,0,0
1777227221637000,1777227221637000,1777227106893000,47.397742099999995,8.5455942,103.09111,-0.03445313,0.087768555,-0.0019206639,-0.002875626,-488.1121,-0.011191844,-0.007383083,-0.008602244,0.0063549667,-0.0017447465,0.0049493075,-6.0223043e-05,-0.022875555,-0.026708554,-0.013237818,-0.0014651272,0.00044412576,-0.003844135,-0.0042710165,0.0003783624,488.1121,0.010009766,1e-04,-488.1121,0.12170985,0.11401893,0.08128904,0.049745813,inf,inf,inf,inf,inf,1,1,1,1,3,2,2,1,2,1,1,1,0,2,0,0
1777227221645000,1777227221645000,1777227106893000,47.397742099999995,8.5455942,103.09109,-0.03437574,0.08779907,-0.0019206639,-0.002875626,-488.1121,-0.01145798,-0.00722754,-0.008746948,0.006175858,-0.0017447465,0.0049493075,-6.0223043e-05,-0.03975521,0.0089401305,-0.022361984,-0.0014004636,0.00044423286,-0.0037847257,-0.0042710165,0.00037840646,488.1121,0.010009766,1e-04,-488.1121,0.12212413,0.11427364,0.08158903,0.049829207,inf,inf,inf,inf,inf,1,1,1,1,3,2,2,1,2,1,1,1,0,2,0,0
1777227221653000,1777227221653000,1777227106893000,47.397742099999995,8.5455942,103.09107,-0.03427541,0.08782959,-0.0019206639,-0.002875626,-488.1121,-0.011751805,-0.007017003,-0.008748465,0.0061670467,-0.0017447465,0.0049493075,-6.0223043e-05,-0.04450255,0.014131291,-0.0056191343,-0.0013592035,0.00044432445,-0.003748695,-0.0042710165,0.00037816883,488.1121,0.010009766,1e-04,-488.1121,0.119877785,0.11294009,0.079941764,0.049378265,inf,inf,inf,inf,inf,1,1,1,1,3,2,2,1,2,1,1,1,0,2,0,0
1777227221661000,1777227221661000,1777227106893000,47.397742099999995,8.5455942,103.09106,-0.034178384,0.087890625,-0.0019206639,-0.002875626,-488.1121,-0.011927553,-0.006967905,-0.008300137,0.00660677,-0.0017447465,0.0049493075,-6.0223043e-05,-0.02954689,-0.0056814337,0.050721686,-0.0013104068,0.00044443161,-0.0037052173,-0.0042710165,0.0003782126,488.1121,0.010009766,1e-04,-488.1121,0.12027967,0.11313246,0.080239914,0.049451984,inf,inf,inf,inf,inf,1,1,1,1,3,2,2,1,2,1,1,1,0,2,0,0
1777227221669000,1777227221669000,1777227106893000,47.397742099999995,8.5455942,103.091034,-0.03408583,0.08792114,-0.0019206639,-0.002875626,-488.1121,-0.012156954,-0.006960737,-0.008188096,0.006706806,-0.0017447465,0.0049493075,-6.0223043e-05,-0.036063086,-0.010561613,0.008860602,-0.0013510997,0.00044453883,-0.0037512,-0.0042710165,0.00037825655,488.1121,0.010009766,1e-04,-488.1121,0.120684296,0.11338421,0.08053797,0.04953598,inf,inf,inf,inf,inf,1,1,1,1,3,2,2,1,2,1,1,1,0,2,0,0
1777227221677000,1777227221677000,1777227106893000,47.397742099999995,8.5455942,103.09101,-0.033996325,0.08798218,-0.0019206639,-0.002875626,-488.1121,-0.012419241,-0.006746705,-0.008035244,0.00684433,-0.0017447465,0.0049493075,-6.0223043e-05,-0.039886735,0.015611583,0.014131888,-0.0012886334,0.00044381036,-0.0036939934,-0.0042710165,0.00037828973,488.1121,0.010009766,1e-04,-488.1121,0.12108935,0.11363681,0.0808289,0.049619727,inf,inf,inf,inf,inf,1,1,1,1,3,2,2,1,2,1,1,1,0,2,0,0
1777227221685000,1777227221685000,1777227106893000,47.397742099999995,8.5455942,103.09098,-0.033908755,0.088012695,-0.0019206639,-0.002875626,-488.1121,-0.012338608,-0.0064687207,-0.0076690842,0.007191994,-0.0017447465,0.0049493075,-6.0223043e-05,0.0031569756,0.023951283,0.040960494,-0.0011881473,0.00044391735,-0.0035984004,-0.0042710165,0.00037833376,488.1121,0.010009766,1e-04,-488.1121,0.12149941,0.11389024,0.08112889,0.049703367,inf,inf,inf,inf,inf,1,1,1,1,3,2,2,1,2,1,1,1,0,2,0,0
1777227221693000,1777227221693000,1777227106893000,47.397742099999995,8.5455942,103.09096,-0.03382366,0.08804321,-0.0019206639,-0.002875626,-488.1121,-0.01246322,-0.006247865,-0.0073994035,0.0074401605,-0.0017447465,0.0049493075,-6.0223043e-05,-0.0223275,0.017147187,0.029060988,-0.0011750872,0.00044402436,-0.0035902034,-0.0042710165,0.0003783778,488.1121,0.010009766,1e-04,-488.1121,0.12191223,0.11414451,0.08142953,0.04978665,inf,inf,inf,inf,inf,1,1,1,1,3,2,2,1,2,1,1,1,0,2,0,0
1777227221701000,1777227221701000,1777227106893000,47.397742099999995,8.5455942,103.09095,-0.033715863,0.08810425,-0.0019206639,-0.002875626,-488.1121,-0.012376052,-0.0059906994,-0.0077403053,0.0070991786,-0.0017447465,0.0049493075,-6.0223043e-05,0.0024462123,0.020081209,-0.048208047,-0.0011542233,0.00044411572,-0.003574173,-0.0042710165,0.00037814275,488.1121,0.010009766,1e-04,-488.1121,0.119680926,0.11281614,0.0797953,0.049337592,inf,inf,inf,inf,inf,1,1,1,1,3,2,2,1,2,1,1,1,0,2,0,0
1777227221709000,1777227221709000,1777227106893000,47.397742099999995,8.5455942,103.09094,-0.033612262,0.08816528,-0.0019206639,-0.002875626,-488.1121,-0.012392429,-0.0061297817,-0.007606574,0.007229156,-0.0017447465,0.0049493075,-6.0223043e-05,-0.0102819055,-0.029084448,0.011303927,-0.0011568122,0.0004442229,-0.0035816869,-0.0042710165,0.00037818676,488.1121,0.010009766,1e-04,-488.1121,0.12008148,0.113066755,0.08009365,0.04942169,inf,inf,inf,inf,inf,1,1,1,1,3,2,2,1,2,1,1,1,0,2,0,0
1777227221717000,1777227221717000,1777227106893000,47.397742099999995,8.5455942,103.09093,-0.03351378,0.08822632,-0.0019206639,-0.002875626,-488.1121,-0.012405829,-0.0061521567,-0.007254456,0.0075738793,-0.0017447465,0.0049493075,-6.0223043e-05,-0.009699797,-0.014141286,0.038766764,-0.0011585561,0.00044432995,-0.0035883286,-0.0042710165,0.00037823047,488.1121,0.010009766,1e-04,-488.1121,0.12048477,0.11325937,0.080391444,0.049495272,inf,inf,inf,inf,inf,1,1,1,1,3,2,2,1,2,1,1,1,0,2,0,0
1777227221725000,1777227221725000,1777227106893000,47.397742099999995,8.5455942,103.09092,-0.033418857,0.08828735,-0.0019206639,-0.002875626,-488.1121,-0.012236039,-0.005998882,-0.00729269,0.007524626,-0.0017447465,0.0049493075,-6.0223043e-05,0.013402099,0.008166671,-0.009854323,-0.0012526648,0.00044443706,-0.0036873077,-0.0042710165,0.00037827436,488.1121,0.010009766,1e-04,-488.1121,0.120890796,0.11351155,0.080690265,0.049579,inf,inf,inf,inf,inf,1,1,1,1,3,2,2,1,2,1,1,1,0,2,0,0
1777227221733000,1777227221733000,1777227106893000,47.397742099999995,8.5455942,103.090904,-0.03332696,0.08834839,-0.0019206639,-0.002875626,-488.1121,-0.012133411,-0.0058635087,-0.007039973,0.0077628116,-0.0017447465,0.0049493075,-6.0223043e-05,0.0052101132,0.0062704543,0.02668239,-0.0013148511,0.00044454436,-0.0037543364,-0.0042710165,0.00037831845,488.1121,0.010009766,1e-04,-488.1121,0.12129957,0.11376457,0.080990285,0.049662527,inf,inf,inf,inf,inf,1,1,1,1,3,2,2,1,2,1,1,1,0,2,0,0
1777227221741000,1777227221741000,1777227106893000,47.397742099999995,8.5455942,103.0909,-0.033236958,0.088378906,-0.0019206639,-0.002875626,-488.1121,-0.012515361,-0.0058103898,-0.0066965437,0.008088331,-0.0017447465,0.0049493075,-6.0223043e-05,-0.05519636,-0.0039815293,0.038184687,-0.0013464235,0.00044381648,-0.003790724,-0.0042710165,0.00037835172,488.1121,0.010009766,1e-04,-488.1121,0.1217087,0.11401843,0.08128064,0.049745996,inf,inf,inf,inf,inf,1,1,1,1,3,2,2,1,2,1,1,1,0,2,0,0
1777227221749000,1777227221749000,1777227106893000,47.397742099999995,8.5455942,103.09087,-0.033150356,0.08843994,-0.0019206639,-0.002875626,-488.1121,-0.012829418,-0.005748796,-0.0066418657,0.008121799,-0.0017447465,0.0049493075,-6.0223043e-05,-0.046524383,-0.0026006126,0.0022491438,-0.0014697595,0.00044392355,-0.003916533,-0.0042710165,0.0003783959,488.1121,0.010009766,1e-04,-488.1121,0.122122936,0.114273146,0.08158015,0.049829222,inf,inf,inf,inf,inf,1,1,1,1,3,2,2,1,2,1,1,1,0,2,0,0
1777227221757000,1777227221757000,1777227106893000,47.397742099999995,8.5455942,103.09087,-0.033052124,0.08850098,-0.0019206639,-0.002875626,-488.1121,-0.013135634,-0.0056203273,-0.0067995093,0.007968008,-0.0017447465,0.0049493075,-6.0223043e-05,-0.047305547,0.0048031793,-0.025317537,-0.0014175501,0.0004440146,-0.0038667675,-0.0042710165,0.00037815978,488.1121,0.010009766,1e-04,-488.1121,0.119876765,0.1129396,0.07993414,0.04937828,inf,inf,inf,inf,inf,1,1,1,1,3,2,2,1,2,1,1,1,0,2,0,0
1777227221765000,1777227221765000,1777227106893000,47.397742099999995,8.5455942,103.09087,-0.032958627,0.08856201,-0.0019206639,-0.002875626,-488.1121,-0.012971726,-0.005894306,-0.007043613,0.0077236663,-0.0017447465,0.0049493075,-6.0223043e-05,0.0116896415,-0.045163363,-0.035932284,-0.0013503986,0.00044412175,-0.0038020934,-0.0042710165,0.00037820364,488.1121,0.010009766,1e-04,-488.1121,0.12027862,0.113131985,0.0802339,0.049451787,inf,inf,inf,inf,inf,1,1,1,1,3,2,2,1,2,1,1,1,0,2,0,0
1777227221773000,1777227221773000,1777227106893000,47.397742099999995,8.5455942,103.090866,-0.032869395,0.08862305,-0.0019206639,-0.002875626,-488.1121,-0.012797155,-0.0056389766,-0.0072246646,0.0075384956,-0.0017447465,0.0049493075,-6.0223043e-05,0.013250726,0.021330576,-0.027873086,-0.0012865814,0.00044422894,-0.0037406562,-0.0042710165,0.0003782477,488.1121,0.010009766,1e-04,-488.1121,0.120683216,0.113383725,0.08053367,0.049535677,inf,inf,inf,inf,inf,1,1,1,1,3,2,2,1,2,1,1,1,0,2,0,0
1777227221781000,1777227221781000,1777227106893000,47.397742099999995,8.5455942,103.090866,-0.032782283,0.08868408,-0.0019206639,-0.002875626,-488.1121,-0.012709773,-0.005449202,-0.0077131265,0.00704221,-0.0017447465,0.0049493075,-6.0223043e-05,0.00257308,0.01345679,-0.06612669,-0.0013909735,0.00044433604,-0.0038473299,-0.0042710165,0.00037829165,488.1121,0.010009766,1e-04,-488.1121,0.12109055,0.113636315,0.08083367,0.049619224,inf,inf,inf,inf,inf,1,1,1,1,3,2,2,1,2,1,1,1,0,2,0,0
1777227221789000,1777227221789000,1777227106893000,47.397742099999995,8.5455942,103.09086,-0.03269634,0.08874512,-0.0019206639,-0.002875626,-488.1121,-0.01291472,-0.004996506,-0.008538958,0.0062050177,-0.0017447465,0.0049493075,-6.0223043e-05,-0.03375569,0.04664152,-0.10813027,-0.001409059,0.0004444432,-0.0038675973,-0.0042710165,0.00037833568,488.1121,0.010009766,1e-04,-488.1121,0.12150065,0.11388974,0.081133775,0.049702674,inf,inf,inf,inf,inf,1,1,1,1,3,2,2,1,2,1,1,1,0,2,0,0
1777227221797000,1777227221797000,1777227106893000,47.397742099999995,8.5455942,103.09085,-0.03261202,0.088775635,-0.0019206639,-0.002875626,-488.1121,-0.012986435,-0.005006002,-0.00872723,0.006002008,-0.0017447465,0.0049493075,-6.0223043e-05,-0.016892813,-0.010823936,-0.028272623,-0.0014442082,0.0004445504,-0.0039048293,-0.0042710165,0.00037837974,488.1121,0.010009766,1e-04,-488.1121,0.12191351,0.11414401,0.08143431,0.049785998,inf,inf,inf,inf,inf,1,1,1,1,3,2,2,1,2,1,1,1,0,2,0,0
1777227221805000,1777227221805000,1777227106893000,47.397742099999995,8.5455942,103.09087,-0.032510173,0.08883667,-0.0019206639,-0.002875626,-488.1121,-0.013107698,-0.005007876,-0.008879775,0.005854748,-0.0017447465,0.0049493075,-6.0223043e-05,-0.025409663,-0.011227194,-0.024669802,-0.0013925827,0.00044464265,-0.0038551593,-0.0042710165,0.00037814496,488.1121,0.010009766,1e-04,-488.1121,0.11968206,0.11281566,0.07979936,0.049336813,inf,inf,inf,inf,inf,1,1,1,1,3,2,2,1,2,1,1,1,0,2,0,0
1777227221813000,1777227221813000,1777227106893000,47.397742099999995,8.5455942,103.09089,-0.032412276,0.08886719,-0.0019206639,-0.002875626,-488.1121,-0.013058878,-0.0049549765,-0.00867993,0.006055845,-0.0017447465,0.0049493075,-6.0223043e-05,-0.0038912047,-0.0039969906,0.019561963,-0.001383715,0.00044391397,-0.0038482116,-0.0042710165,0.00037817832,488.1121,0.010009766,1e-04,-488.1121,0.12008045,0.11306628,0.080088146,0.049420696,inf,inf,inf,inf,inf,1,1,1,1,3,2,2,1,2,1,1,1,0,2,0,0
1777227221821000,1777227221821000,1777227106893000,47.397742099999995,8.5455942,103.090904,-0.032318223,0.08892822,-0.0019206639,-0.002875626,-488.1121,-0.0126758525,-0.0050042397,-0.008716058,0.00601702,-0.0017447465,0.0049493075,-6.0223043e-05,0.038143862,-0.016437294,-0.009763519,-0.0014327368,0.0004440209,-0.0038994031,-0.0042710165,0.00037822203,488.1121,0.010009766,1e-04,-488.1121,0.120483704,0.11325888,0.08038704,0.049494017,inf,inf,inf,inf,inf,1,1,1,1,3,2,2,1,2,1,1,1,0,2,0,0
1777227221829000,1777227221829000,1777227106893000,47.397742099999995,8.5455942,103.09093,-0.03222873,0.08898926,-0.0019206639,-0.002875626,-488.1121,-0.012530681,-0.005065249,-0.008767582,0.0059589576,-0.0017447465,0.0049493075,-6.0223043e-05,0.008663042,-0.017587105,-0.011515337,-0.0013873879,0.00044412806,-0.0038560957,-0.0042710165,0.00037826606,488.1121,0.010009766,1e-04,-488.1121,0.12088971,0.113511056,0.080686115,0.04957766,inf,inf,inf,inf,inf,1,1,1,1,3,2,2,1,2,1,1,1,0,2,0,0
1777227221837000,1777227221837000,1777227106893000,47.397742099999995,8.5455942,103.09094,-0.03214465,0.089019775,-0.0019206639,-0.002875626,-488.1121,-0.012245118,-0.005150328,-0.008925904,0.005790335,-0.0017447465,0.0049493075,-6.0223043e-05,0.026333075,-0.020047082,-0.024697741,-0.0013335581,0.00044408618,-0.0038041803,-0.0042710165,0.00037830806,488.1121,0.010009766,1e-04,-488.1121,0.12129807,0.11376406,0.08098336,0.049661376,inf,inf,inf,inf,inf,1,1,1,1,3,2,2,1,2,1,1,1,0,2,0,0
1777227221845000,1777227221845000,1777227106893000,47.397742099999995,8.5455942,103.09096,-0.032065794,0.08905029,-0.0019206639,-0.002875626,-488.1121,-0.011935912,-0.005418426,-0.008596274,0.0061059627,-0.0017447465,0.0049493075,-6.0223043e-05,0.029529324,-0.04263198,0.036458947,-0.0013380178,0.00044419328,-0.0038096595,-0.0042710165,0.00037835218,488.1121,0.010009766,1e-04,-488.1121,0.121709555,0.11401792,0.081282735,0.04974485,inf,inf,inf,inf,inf,1,1,1,1,3,2,2,1,2,1,1,1,0,2,0,0
1777227221853000,1777227221853000,1777227106893000,47.397742099999995,8.5455942,103.09097,-0.031991597,0.08908081,-0.0019206639,-0.002875626,-488.1121,-0.011791971,-0.005354121,-0.008633167,0.00605152,-0.0017447465,0.0049493075,-6.0223043e-05,0.00911211,-0.00079932937,-0.0091982065,-0.0013522625,0.00044430024,-0.0038248058,-0.0042710165,0.00037839622,488.1121,0.010009766,1e-04,-488.1121,0.12212381,0.114272624,0.081584044,0.049828302,inf,inf,inf,inf,inf,1,1,1,1,3,2,2,1,2,1,1,1,0,2,0,0
1777227221861000,1777227221861000,1777227106893000,47.397742099999995,8.5455942,103.09101,-0.031905737,0.089141846,-0.0019206639,-0.002875626,-488.1121,-0.011740233,-0.0051521813,-0.008870751,0.0058122217,-0.0017447465,0.0049493075,-6.0223043e-05,-0.004204238,0.015485396,-0.03499351,-0.0013621628,0.00044439218,-0.0038354914,-0.0042710165,0.0003781602,488.1121,0.010009766,1e-04,-488.1121,0.11987754,0.11293911,0.07993724,0.049377255,inf,inf,inf,inf,inf,1,1,1,1,3,2,2,1,2,1,1,1,0,2,0,0
1777227221869000,1777227221869000,1777227106893000,47.397742099999995,8.5455942,103.09105,-0.031821102,0.08917236,-0.0019206639,-0.002875626,-488.1121,-0.01181092,-0.00469655,-0.008847284,0.005829945,-0.0017447465,0.0049493075,-6.0223043e-05,-0.019230215,0.047498837,-0.0021997837,-0.0013286927,0.00044449928,-0.003802746,-0.0042710165,0.000378204,488.1121,0.010009766,1e-04,-488.1121,0.1202794,0.11313148,0.08023552,0.049450792,inf,inf,inf,inf,inf,1,1,1,1,3,2,2,1,2,1,1,1,0,2,0,0
1777227221877000,1777227221877000,1777227106893000,47.397742099999995,8.5455942,103.09108,-0.031741526,0.0892334,-0.0019206639,-0.002875626,-488.1121,-0.012144524,-0.004435828,-0.008335534,0.0063320254,-0.0017447465,0.0049493075,-6.0223043e-05,-0.052528553,0.02438025,0.05900487,-0.0011812228,0.00044377186,-0.0036558837,-0.0042710165,0.00037823722,488.1121,0.010009766,1e-04,-488.1121,0.12068175,0.11338321,0.08052591,0.049534705,inf,inf,inf,inf,inf,1,1,1,1,3,2,2,1,2,1,1,1,0,2,0,0
1777227221885000,1777227221885000,1777227106893000,47.397742099999995,8.5455942,103.09111,-0.03166317,0.089263916,-0.0019206639,-0.002875626,-488.1121,-0.01237724,-0.0041264417,-0.007700997,0.0069530862,-0.0017447465,0.0049493075,-6.0223043e-05,-0.03963321,0.030729838,0.074517444,-0.0011866975,0.00044387885,-0.0036697034,-0.0042710165,0.0003782813,488.1121,0.010009766,1e-04,-488.1121,0.12108905,0.11363579,0.08082496,0.04961845,inf,inf,inf,inf,inf,1,1,1,1,3,2,2,1,2,1,1,1,0,2,0,0
1777227221893000,1777227221893000,1777227106893000,47.397742099999995,8.5455942,103.09114,-0.03158617,0.08932495,-0.0019206639,-0.002875626,-488.1121,-0.012593188,-0.003836785,-0.0072879707,0.0073489007,-0.0017447465,0.0049493075,-6.0223043e-05,-0.037264314,0.028520355,0.04698848,-0.0011585287,0.00044398586,-0.0036497645,-0.0042710165,0.00037832538,488.1121,0.010009766,1e-04,-488.1121,0.1214991,0.113889225,0.08112385,0.0497018,inf,inf,inf,inf,inf,1,1,1,1,3,2,2,1,2,1,1,1,0,2,0,0
1777227221901000,1777227221901000,1777227106893000,47.397742099999995,8.5455942,103.091156,-0.03150995,0.08935547,-0.0019206639,-0.002875626,-488.1121,-0.012798197,-0.0035089524,-0.0073073544,0.007308662,-0.0017447465,0.0049493075,-6.0223043e-05,-0.03562991,0.03354174,-0.006907619,-0.0010930279,0.0004440928,-0.003592379,-0.0042710165,0.00037836944,488.1121,0.010009766,1e-04,-488.1121,0.121911906,0.11414348,0.08142379,0.049785063,inf,inf,inf,inf,inf,1,1,1,1,3,2,2,1,2,1,1,1,0,2,0,0
1777227221909000,1777227221909000,1777227106893000,47.397742099999995,8.5455942,103.09119,-0.03141958,0.089416504,-0.0019206639,-0.002875626,-488.1121,-0.012729874,-0.0029458392,-0.0073234383,0.0072844326,-0.0017447465,0.0049493075,-6.0223043e-05,-0.002722267,0.062017377,-0.0070855017,-0.0010702815,0.0004441848,-0.0035776948,-0.0042710165,0.00037813614,488.1121,0.010009766,1e-04,-488.1121,0.119680695,0.112815164,0.07978978,0.049335867,inf,inf,inf,inf,inf,1,1,1,1,3,2,2,1,2,1,1,1,0,2,0,0
1777227221917000,1777227221917000,1777227106893000,47.397742099999995,8.5455942,103.09122,-0.031331263,0.08947754,-0.0019206639,-0.002875626,-488.1121,-0.012463344,-0.003167281,-0.007002196,0.0075936187,-0.0017447465,0.0049493075,-6.0223043e-05,0.022342473,-0.035783354,0.03524776,-0.0010442563,0.00044429195,-0.0035597386,-0.0042710165,0.00037818012,488.1121,0.010009766,1e-04,-488.1121,0.12008122,0.113065764,0.080089465,0.04941983,inf,inf,inf,inf,inf,1,1,1,1,3,2,2,1,2,1,1,1,0,2,0,0
1777227221925000,1777227221925000,1777227106893000,47.397742099999995,8.5455942,103.09125,-0.031247763,0.08950806,-0.0019206639,-0.002875626,-488.1121,-0.012006761,-0.0031272545,-0.0069615613,0.007618483,-0.0017447465,0.0049493075,-6.0223043e-05,0.046380814,-0.0028377152,0.00034458932,-0.0010331369,0.0004443991,-0.0035566357,-0.0042710165,0.000378224,488.1121,0.010009766,1e-04,-488.1121,0.12048449,0.11325837,0.08038931,0.049493417,inf,inf,inf,inf,inf,1,1,1,1,3,2,2,1,2,1,1,1,0,2,0,0
1777227221933000,1777227221933000,1777227106893000,47.397742099999995,8.5455942,103.09128,-0.031165237,0.08956909,-0.0019206639,-0.002875626,-488.1121,-0.011730217,-0.0026342273,-0.006995949,0.007564849,-0.0017447465,0.0049493075,-6.0223043e-05,0.024153108,0.054043766,-0.008875503,-0.0010677417,0.00044450632,-0.003599207,-0.0042710165,0.00037826807,488.1121,0.010009766,1e-04,-488.1121,0.120890506,0.113510534,0.08069019,0.049577225,inf,inf,inf,inf,inf,1,1,1,1,3,2,2,1,2,1,1,1,0,2,0,0
1777227221941000,1777227221941000,1777227106893000,47.397742099999995,8.5455942,103.09131,-0.031083133,0.08959961,-0.0019206639,-0.002875626,-488.1121,-0.011657726,-0.0024297643,-0.006752236,0.007786144,-0.0017447465,0.0049493075,-6.0223043e-05,-0.0010809207,0.018226517,0.026040243,-0.0011389323,0.00044461357,-0.0036783167,-0.0042710165,0.0003783122,488.1121,0.010009766,1e-04,-488.1121,0.121299274,0.11376355,0.080992125,0.049660824,inf,inf,inf,inf,inf,1,1,1,1,3,2,2,1,2,1,1,1,0,2,0,0
1777227221949000,1777227221949000,1777227106893000,47.397742099999995,8.5455942,103.09133,-0.031004509,0.08963013,-0.0019206639,-0.002875626,-488.1121,-0.011925718,-0.0025626158,-0.0067518777,0.0077611674,-0.0017447465,0.0049493075,-6.0223043e-05,-0.04341775,-0.023586279,-0.0042305323,-0.0011538037,0.00044388603,-0.0037010629,-0.0042710165,0.0003783455,488.1121,0.010009766,1e-04,-488.1121,0.12170841,0.1140174,0.081283264,0.049744252,inf,inf,inf,inf,inf,1,1,1,1,3,2,2,1,2,1,1,1,0,2,0,0
1777227221957000,1777227221957000,1777227106893000,47.397742099999995,8.5455942,103.091354,-0.030928267,0.08969116,-0.0019206639,-0.002875626,-488.1121,-0.011715154,-0.0020995329,-0.0068088523,0.007676103,-0.0017447465,0.0049493075,-6.0223043e-05,0.016654845,0.05113573,-0.011252704,-0.0011668225,0.00044399305,-0.0037227874,-0.0042710165,0.00037838967,488.1121,0.010009766,1e-04,-488.1121,0.12212265,0.114272095,0.08158397,0.04982752,inf,inf,inf,inf,inf,1,1,1,1,3,2,2,1,2,1,1,1,0,2,0,0
1777227221965000,1777227221965000,1777227106893000,47.397742099999995,8.5455942,103.091385,-0.030844318,0.08972168,-0.0019206639,-0.002875626,-488.1121,-0.0114292875,-0.0015712305,-0.007009106,0.007462361,-0.0017447465,0.0049493075,-6.0223043e-05,0.025327547,0.058753893,-0.029860063,-0.0010582303,0.00044408467,-0.0036228616,-0.0042710165,0.00037815256,488.1121,0.010009766,1e-04,-488.1121,0.119876474,0.11293861,0.079937056,0.049376566,inf,inf,inf,inf,inf,1,1,1,1,3,2,2,1,2,1,1,1,0,2,0,0
1777227221973000,1777227221973000,1777227106893000,47.397742099999995,8.5455942,103.09141,-0.030759685,0.089782715,-0.0019206639,-0.002875626,-488.1121,-0.0117183365,-0.0012013434,-0.0068935277,0.007559236,-0.0017447465,0.0049493075,-6.0223043e-05,-0.046265893,0.03919618,0.009843613,-0.0010479197,0.00044419174,-0.0036212117,-0.0042710165,0.00037819642,488.1121,0.010009766,1e-04,-488.1121,0.12027833,0.11313097,0.080236435,0.049450286,inf,inf,inf,inf,inf,1,1,1,1,3,2,2,1,2,1,1,1,0,2,0,0
1777227221981000,1777227221981000,1777227106893000,47.397742099999995,8.5455942,103.09142,-0.030677453,0.08981323,-0.0019206639,-0.002875626,-488.1121,-0.012246664,-0.0013495677,-0.006824214,0.0076068463,-0.0017447465,0.0049493075,-6.0223043e-05,-0.075916626,-0.025333771,0.004214234,-0.001101661,0.00044429896,-0.003683569,-0.0042710165,0.0003782406,488.1121,0.010009766,1e-04,-488.1121,0.12068293,0.113382705,0.080536045,0.04953412,inf,inf,inf,inf,inf,1,1,1,1,3,2,2,1,2,1,1,1,0,2,0,0
1777227221989000,1777227221989000,1777227106893000,47.397742099999995,8.5455942,103.09143,-0.030600082,0.08987427,-0.0019206639,-0.002875626,-488.1121,-0.012679803,-0.0015653537,-0.0063728215,0.008033682,-0.0017447465,0.0049493075,-6.0223043e-05,-0.06376441,-0.03355035,0.052123327,-0.0011093857,0.00044440595,-0.0036998685,-0.0042710165,0.00037828455,488.1121,0.010009766,1e-04,-488.1121,0.12109028,0.11363527,0.08083626,0.049617898,inf,inf,inf,inf,inf,1,1,1,1,3,2,2,1,2,1,1,1,0,2,0,0
1777227221997000,1777227221997000,1777227106893000,47.397742099999995,8.5455942,103.09144,-0.030526485,0.089904785,-0.0019206639,-0.002875626,-488.1121,-0.012774849,-0.0016287261,-0.0063739885,0.008005197,-0.0017447465,0.0049493075,-6.0223043e-05,-0.021253005,-0.014271833,-0.0043017785,-0.0011606083,0.00044451313,-0.0037596282,-0.0042710165,0.00037832867,488.1121,0.010009766,1e-04,-488.1121,0.12150038,0.113888696,0.081135504,0.049701516,inf,inf,inf,inf,inf,1,1,1,1,3,2,2,1,2,1,1,1,0,2,0,0
1777227222005000,1777227222005000,1777227106893000,47.397742099999995,8.5455942,103.091446,-0.030455587,0.0899353,-0.0019206639,-0.002875626,-488.1121,-0.012751093,-0.0014538034,-0.006550043,0.0077991392,-0.0017447465,0.0049493075,-6.0223043e-05,-0.0061604735,0.015730463,-0.026022082,-0.0011788525,0.00044462035,-0.0037863958,-0.0042710165,0.00037837282,488.1121,0.010009766,1e-04,-488.1121,0.12191324,0.11414296,0.081435926,0.04978501,inf,inf,inf,inf,inf,1,1,1,1,3,2,2,1,2,1,1,1,0,2,0,0
1777227222013000,1777227222013000,1777227106893000,47.397742099999995,8.5455942,103.09145,-0.03038427,0.08999634,-0.0019206639,-0.002875626,-488.1121,-0.012708646,-0.0011262649,-0.006324341,0.00800754,-0.0017447465,0.0049493075,-6.0223043e-05,-0.0052477643,0.034334574,0.023565253,-0.0011455778,0.00044387736,-0.0037616338,-0.0042710165,0.00037812645,488.1121,0.010009766,1e-04,-488.1121,0.11967964,0.11281466,0.07979259,0.04933601,inf,inf,inf,inf,inf,1,1,1,1,3,2,2,1,2,1,1,1,0,2,0,0
1777227222021000,1777227222021000,1777227106893000,47.397742099999995,8.5455942,103.09146,-0.030314185,0.090026855,-0.0019206639,-0.002875626,-488.1121,-0.012372263,-0.001057321,-0.0065540182,0.0077575766,-0.0017447465,0.0049493075,-6.0223043e-05,0.03176371,0.0022343337,-0.03320211,-0.0011631947,0.00044398435,-0.0037864048,-0.0042710165,0.00037817046,488.1121,0.010009766,1e-04,-488.1121,0.12008017,0.11306526,0.080091536,0.04942003,inf,inf,inf,inf,inf,1,1,1,1,3,2,2,1,2,1,1,1,0,2,0,0
1777227222029000,1777227222029000,1777227106893000,47.397742099999995,8.5455942,103.09147,-0.030246217,0.09008789,-0.0019206639,-0.002875626,-488.1121,-0.0122026,-0.00095470436,-0.006727719,0.0075596403,-0.0017447465,0.0049493075,-6.0223043e-05,0.011188474,0.0066572535,-0.026006715,-0.0012774209,0.00044409127,-0.0039077783,-0.0042710165,0.0003782143,488.1121,0.010009766,1e-04,-488.1121,0.12048344,0.11325786,0.080389395,0.049493346,inf,inf,inf,inf,inf,1,1,1,1,3,2,2,1,2,1,1,1,0,2,0,0
1777227222037000,1777227222037000,1777227106893000,47.397742099999995,8.5455942,103.09148,-0.03017991,0.09011841,-0.0019206639,-0.002875626,-488.1121,-0.012345976,-0.0009613804,-0.0065711364,0.007689062,-0.0017447465,0.0049493075,-6.0223043e-05,-0.027592344,-0.006848377,0.015423632,-0.0013287462,0.00044404963,-0.003966248,-0.0042710165,0.00037825626,488.1121,0.010009766,1e-04,-488.1121,0.12088907,0.11351003,0.08068557,0.04957701,inf,inf,inf,inf,inf,1,1,1,1,3,2,2,1,2,1,1,1,0,2,0,0
1777227222045000,1777227222045000,1777227106893000,47.397742099999995,8.5455942,103.09148,-0.030116793,0.090148926,-0.0019206639,-0.002875626,-488.1121,-0.012262073,-0.0010452905,-0.0065928423,0.0076372535,-0.0017447465,0.0049493075,-6.0223043e-05,0.0010638023,-0.016298534,-0.00672182,-0.0013484482,0.00044415673,-0.0039931308,-0.0042710165,0.00037830046,488.1121,0.010009766,1e-04,-488.1121,0.121297814,0.11376303,0.080984265,0.04966056,inf,inf,inf,inf,inf,1,1,1,1,3,2,2,1,2,1,1,1,0,2,0,0
1777227222053000,1777227222053000,1777227106893000,47.397742099999995,8.5455942,103.091484,-0.030057738,0.09017944,-0.0019206639,-0.002875626,-488.1121,-0.01213019,-0.0013828903,-0.0064995377,0.0076975827,-0.0017447465,0.0049493075,-6.0223043e-05,0.0073040747,-0.0478103,0.0077909785,-0.0013275644,0.00044426377,-0.003979223,-0.0042710165,0.0003783446,488.1121,0.010009766,1e-04,-488.1121,0.1217093,0.114016876,0.081284344,0.049744,inf,inf,inf,inf,inf,1,1,1,1,3,2,2,1,2,1,1,1,0,2,0,0
1777227222061000,1777227222061000,1777227106893000,47.397742099999995,8.5455942,103.091484,-0.03000304,0.09020996,-0.0019206639,-0.002875626,-488.1121,-0.012197179,-0.00144853,-0.005838463,0.008322932,-0.0017447465,0.0049493075,-6.0223043e-05,-0.017319707,-0.013614815,0.07889466,-0.0012793173,0.00044437085,-0.0039377483,-0.0042710165,0.00037838874,488.1121,0.010009766,1e-04,-488.1121,0.12212356,0.114271566,0.08158484,0.049827505,inf,inf,inf,inf,inf,1,1,1,1,3,2,2,1,2,1,1,1,0,2,0,0
1777227222069000,1777227222069000,1777227106893000,47.397742099999995,8.5455942,103.09149,-0.029938206,0.090270996,-0.0019206639,-0.002875626,-488.1121,-0.0121362405,-0.0013150912,-0.0053254776,0.0088006845,-0.0017447465,0.0049493075,-6.0223043e-05,-0.0026088608,0.010506701,0.06020488,-0.0012443064,0.0004444626,-0.00390931,-0.0042710165,0.00037815265,488.1121,0.010009766,1e-04,-488.1121,0.1198773,0.1129381,0.07993762,0.049376592,inf,inf,inf,inf,inf,1,1,1,1,3,2,2,1,2,1,1,1,0,2,0,0
1777227222077000,1777227222077000,1777227106893000,47.397742099999995,8.5455942,103.09151,-0.029874133,0.09030151,-0.0019206639,-0.002875626,-488.1121,-0.012074765,-0.0009963182,-0.00536487,0.008724326,-0.0017447465,0.0049493075,-6.0223043e-05,-0.002276375,0.033878535,-0.008743255,-0.0013027522,0.00044456974,-0.00397417,-0.0042710165,0.00037819654,488.1121,0.010009766,1e-04,-488.1121,0.12027917,0.113130465,0.08023686,0.049450368,inf,inf,inf,inf,inf,1,1,1,1,3,2,2,1,2,1,1,1,0,2,0,0
1777227222085000,1777227222085000,1777227106893000,47.397742099999995,8.5455942,103.09151,-0.029810935,0.09033203,-0.0019206639,-0.002875626,-488.1121,-0.012427443,-0.00090835476,-0.005379693,0.008669877,-0.0017447465,0.0049493075,-6.0223043e-05,-0.05373951,0.005240588,-0.005541369,-0.0013613324,0.0004438428,-0.004038965,-0.0042710165,0.0003782299,488.1121,0.010009766,1e-04,-488.1121,0.12068152,0.11338219,0.08052731,0.049534407,inf,inf,inf,inf,inf,1,1,1,1,3,2,2,1,2,1,1,1,0,2,0,0
1777227222093000,1777227222093000,1777227106893000,47.397742099999995,8.5455942,103.091515,-0.02974954,0.09036255,-0.0019206639,-0.002875626,-488.1121,-0.012434323,-0.00075204106,-0.005774651,0.008232718,-0.0017447465,0.0049493075,-6.0223043e-05,-0.010266622,0.01397667,-0.05293125,-0.0013655609,0.0004439497,-0.004049302,-0.0042710165,0.00037827395,488.1121,0.010009766,1e-04,-488.1121,0.12108882,0.113634765,0.08082637,0.049618147,inf,inf,inf,inf,inf,1,1,1,1,3,2,2,1,2,1,1,1,0,2,0,0
1777227222101000,1777227222101000,1777227106893000,47.397742099999995,8.5455942,103.091515,-0.029689578,0.09039307,-0.0019206639,-0.002875626,-488.1121,-0.012540983,-0.00069845474,-0.006246579,0.007716093,-0.0017447465,0.0049493075,-6.0223043e-05,-0.022498656,0.0013268909,-0.062428877,-0.0013512023,0.0004440565,-0.004040855,-0.0042710165,0.0003783179,488.1121,0.010009766,1e-04,-488.1121,0.121498875,0.11388819,0.08112617,0.049701504,inf,inf,inf,inf,inf,1,1,1,1,3,2,2,1,2,1,1,1,0,2,0,0
1777227222109000,1777227222109000,1777227106893000,47.397742099999995,8.5455942,103.091515,-0.02963051,0.09039307,-0.0019206639,-0.002875626,-488.1121,-0.012485123,-0.0003245877,-0.0066493605,0.007266231,-0.0017447465,0.0049493075,-6.0223043e-05,-0.001949786,0.04155557,-0.053666063,-0.0013749814,0.00044416348,-0.0040703495,-0.0042710165,0.00037836208,488.1121,0.010009766,1e-04,-488.1121,0.1219117,0.11414245,0.081426635,0.049785137,inf,inf,inf,inf,inf,1,1,1,1,3,2,2,1,2,1,1,1,0,2,0,0
1777227222117000,1777227222117000,1777227106893000,47.397742099999995,8.5455942,103.09153,-0.02956151,0.090423584,-0.0019206639,-0.002875626,-488.1121,-0.012817492,-0.0003092942,-0.006736279,0.0071361703,-0.0017447465,0.0049493075,-6.0223043e-05,-0.05214649,-0.0038133974,-0.014487187,-0.0014771394,0.00044425458,-0.0041780053,-0.0042710165,0.00037812776,488.1121,0.010009766,1e-04,-488.1121,0.11968045,0.112814166,0.07979282,0.049336344,inf,inf,inf,inf,inf,1,1,1,1,3,2,2,1,2,1,1,1,0,2,0,0
1777227222125000,1777227222125000,1777227106893000,47.397742099999995,8.5455942,103.091545,-0.029494438,0.090423584,-0.0019206639,-0.002875626,-488.1121,-0.012767135,3.776462e-06,-0.006802101,0.0070248297,-0.0017447465,0.0049493075,-6.0223043e-05,-0.00403437,0.03360609,-0.011724885,-0.0015904056,0.00044436174,-0.0042965803,-0.0042710165,0.00037817186,488.1121,0.010009766,1e-04,-488.1121,0.12008099,0.113064766,0.08009146,0.04942025,inf,inf,inf,inf,inf,1,1,1,1,3,2,2,1,2,1,1,1,0,2,0,0
1777227222133000,1777227222133000,1777227106893000,47.397742099999995,8.5455942,103.09155,-0.029425958,0.0904541,-0.0019206639,-0.002875626,-488.1121,-0.01282901,0.0005093638,-0.00671677,0.0070613413,-0.0017447465,0.0049493075,-6.0223043e-05,-0.017800499,0.057862923,0.00732718,-0.0016260201,0.00044446872,-0.004337287,-0.0042710165,0.0003782157,488.1121,0.010009766,1e-04,-488.1121,0.12048426,0.11325737,0.08039037,0.049493376,inf,inf,inf,inf,inf,1,1,1,1,3,2,2,1,2,1,1,1,0,2,0,0
1777227222141000,1777227222141000,1777227106893000,47.397742099999995,8.5455942,103.09157,-0.029357089,0.0904541,-0.0019206639,-0.002875626,-488.1121,-0.012823302,0.00076920196,-0.0069090566,0.006818011,-0.0017447465,0.0049493075,-6.0223043e-05,-0.009091984,0.027329374,-0.027257947,-0.0015872982,0.00044457585,-0.0043034423,-0.0042710165,0.00037825975,488.1121,0.010009766,1e-04,-488.1121,0.12089028,0.11350953,0.0806886,0.049576826,inf,inf,inf,inf,inf,1,1,1,1,3,2,2,1,2,1,1,1,0,2,0,0
1777227222149000,1777227222149000,1777227106893000,47.397742099999995,8.5455942,103.09157,-0.02928714,0.0904541,-0.0019206639,-0.002875626,-488.1121,-0.012833546,0.0011840696,-0.0067534065,0.0069204345,-0.0017447465,0.0049493075,-6.0223043e-05,-0.010684113,0.046690095,0.016347503,-0.0015208693,0.00044384942,-0.0042416756,-0.0042710165,0.00037829307,488.1121,0.010009766,1e-04,-488.1121,0.121296704,0.113762535,0.08097905,0.04966036,inf,inf,inf,inf,inf,1,1,1,1,3,2,2,1,2,1,1,1,0,2,0,0
1777227222157000,1777227222157000,1777227106893000,47.397742099999995,8.5455942,103.091576,-0.029215401,0.0904541,-0.0019206639,-0.002875626,-488.1121,-0.0128563,0.001731618,-0.006776445,0.006842107,-0.0017447465,0.0049493075,-6.0223043e-05,-0.012000682,0.063451044,-0.0058785076,-0.0015457404,0.00044395615,-0.004269376,-0.0042710165,0.00037833705,488.1121,0.010009766,1e-04,-488.1121,0.12170816,0.114016384,0.08127956,0.049743894,inf,inf,inf,inf,inf,1,1,1,1,3,2,2,1,2,1,1,1,0,2,0,0
1777227222165000,1777227222165000,1777227106893000,47.397742099999995,8.5455942,103.091576,-0.02914335,0.0904541,-0.0019206639,-0.002875626,-488.1121,-0.012574771,0.0017637111,-0.0065013277,0.0070599616,-0.0017447465,0.0049493075,-6.0223043e-05,0.026265295,-0.0008059223,0.03149779,-0.0015390664,0.00044406296,-0.0042653177,-0.0042710165,0.00037838114,488.1121,0.010009766,1e-04,-488.1121,0.12212239,0.114271075,0.08157937,0.049827352,inf,inf,inf,inf,inf,1,1,1,1,3,2,2,1,2,1,1,1,0,2,0,0
1777227222173000,1777227222173000,1777227106893000,47.397742099999995,8.5455942,103.0916,-0.029065141,0.09051514,-0.0019206639,-0.002875626,-488.1121,-0.012386665,0.0015750577,-0.006185956,0.007351448,-0.0017447465,0.0049493075,-6.0223043e-05,0.012778721,-0.028892377,0.03523612,-0.0015184652,0.00044415402,-0.0042471197,-0.0042710165,0.00037814505,488.1121,0.010009766,1e-04,-488.1121,0.119876266,0.11293763,0.079933845,0.049376577,inf,inf,inf,inf,inf,1,1,1,1,3,2,2,1,2,1,1,1,0,2,0,0
1777227222181000,1777227222181000,1777227106893000,47.397742099999995,8.5455942,103.09163,-0.028989047,0.090545654,-0.0019206639,-0.002875626,-488.1121,-0.012133456,0.0017290646,-0.0059696753,0.007538778,-0.0017447465,0.0049493075,-6.0223043e-05,0.02120348,0.014118873,0.023054423,-0.0015822218,0.00044426092,-0.004313121,-0.0042710165,0.00037818885,488.1121,0.010009766,1e-04,-488.1121,0.12027811,0.113129996,0.080233485,0.049450252,inf,inf,inf,inf,inf,1,1,1,1,3,2,2,1,2,1,1,1,0,2,0,0
1777227222189000,1777227222189000,1777227106893000,47.397742099999995,8.5455942,103.09165,-0.028914144,0.09057617,-0.0019206639,-0.002875626,-488.1121,-0.0120548215,0.001894982,-0.0062235873,0.0072530513,-0.0017447465,0.0049493075,-6.0223043e-05,-0.0003374639,0.01578832,-0.035584435,-0.0016069373,0.00044436796,-0.0043399045,-0.0042710165,0.0003782329,488.1121,0.010009766,1e-04,-488.1121,0.120682694,0.11338172,0.08053243,0.049533967,inf,inf,inf,inf,inf,1,1,1,1,3,2,2,1,2,1,1,1,0,2,0,0
1777227222197000,1777227222197000,1777227106893000,47.397742099999995,8.5455942,103.091675,-0.028841676,0.09060669,-0.0019206639,-0.002875626,-488.1121,-0.011732013,0.0016794634,-0.0065248837,0.006917175,-0.0017447465,0.0049493075,-6.0223043e-05,0.030452153,-0.03171639,-0.04137633,-0.0016615065,0.00044447507,-0.004396365,-0.0042710165,0.00037827698,488.1121,0.010009766,1e-04,-488.1121,0.121090025,0.113634296,0.0808322,0.04961766,inf,inf,inf,inf,inf,1,1,1,1,3,2,2,1,2,1,1,1,0,2,0,0
1777227222205000,1777227222205000,1777227106893000,47.397742099999995,8.5455942,103.0917,-0.028770996,0.09060669,-0.0019206639,-0.002875626,-488.1121,-0.01155611,0.0020594648,-0.0064754635,0.006929354,-0.0017447465,0.0049493075,-6.0223043e-05,0.012355065,0.04290003,0.0025904735,-0.0016299936,0.0004445823,-0.0043665655,-0.0042710165,0.00037832122,488.1121,0.010009766,1e-04,-488.1121,0.12150012,0.11388771,0.08113194,0.04970118,inf,inf,inf,inf,inf,1,1,1,1,3,2,2,1,2,1,1,1,0,2,0,0
1777227222213000,1777227222213000,1777227106893000,47.397742099999995,8.5455942,103.09171,-0.028700285,0.09063721,-0.0019206639,-0.002875626,-488.1121,-0.0117006395,0.0021854802,-0.0063201915,0.0070447363,-0.0017447465,0.0049493075,-6.0223043e-05,-0.027441332,0.011320898,0.015945638,-0.0015933425,0.00044468947,-0.0043314546,-0.0042710165,0.0003783654,488.1121,0.010009766,1e-04,-488.1121,0.12191296,0.11414197,0.08143046,0.04978454,inf,inf,inf,inf,inf,1,1,1,1,3,2,2,1,2,1,1,1,0,2,0,0
1777227222221000,1777227222221000,1777227106893000,47.397742099999995,8.5455942,103.09175,-0.02861248,0.090667725,-0.0019206639,-0.002875626,-488.1121,-0.012012689,0.0027301605,-0.0060729994,0.007275559,-0.0017447465,0.0049493075,-6.0223043e-05,-0.050259545,0.06276719,0.026496125,-0.0015268954,0.00044394695,-0.0042663817,-0.0042710165,0.00037812153,488.1121,0.010009766,1e-04,-488.1121,0.11967947,0.11281371,0.07978558,0.04933556,inf,inf,inf,inf,inf,1,1,1,1,3,2,2,1,2,1,1,1,0,2,0,0
1777227222229000,1777227222229000,1777227106893000,47.397742099999995,8.5455942,103.09179,-0.028523384,0.09072876,-0.0019206639,-0.002875626,-488.1121,-0.012146053,0.003082285,-0.00602739,0.007302155,-0.0017447465,0.0049493075,-6.0223043e-05,-0.02761989,0.038876843,0.0014454125,-0.0014891439,0.000444054,-0.0042301035,-0.0042710165,0.00037816566,488.1121,0.010009766,1e-04,-488.1121,0.12007998,0.113064304,0.08008468,0.04941963,inf,inf,inf,inf,inf,1,1,1,1,3,2,2,1,2,1,1,1,0,2,0,0
1777227222237000,1777227222237000,1777227106893000,47.397742099999995,8.5455942,103.09182,-0.02843366,0.09075928,-0.0019206639,-0.002875626,-488.1121,-0.011862208,0.0033811408,-0.005906177,0.007402823,-0.0017447465,0.0049493075,-6.0223043e-05,0.024734007,0.032329556,0.011004972,-0.0014910885,0.0004440127,-0.0042333626,-0.0042710165,0.00037820757,488.1121,0.010009766,1e-04,-488.1121,0.12048285,0.11325691,0.08038217,0.049492907,inf,inf,inf,inf,inf,1,1,1,1,3,2,2,1,2,1,1,1,0,2,0,0
1777227222245000,1777227222245000,1777227106893000,47.397742099999995,8.5455942,103.09185,-0.028345862,0.090789795,-0.0019206639,-0.002875626,-488.1121,-0.011820244,0.0032204364,-0.005855525,0.0074305125,-0.0017447465,0.0049493075,-6.0223043e-05,-0.005207467,-0.024938714,0.002324581,-0.0015282437,0.00044411956,-0.004272928,-0.0042710165,0.00037825163,488.1121,0.010009766,1e-04,-488.1121,0.12088882,0.11350907,0.08068268,0.04957666,inf,inf,inf,inf,inf,1,1,1,1,3,2,2,1,2,1,1,1,0,2,0,0
1777227222253000,1777227222253000,1777227106893000,47.397742099999995,8.5455942,103.09188,-0.028261293,0.09085083,-0.0019206639,-0.002875626,-488.1121,-0.011981811,0.0032103914,-0.0059310193,0.007328869,-0.0017447465,0.0049493075,-6.0223043e-05,-0.030369168,-0.0059328685,-0.013308133,-0.001618857,0.00044422637,-0.0043658027,-0.0042710165,0.00037829566,488.1121,0.010009766,1e-04,-488.1121,0.12129755,0.113762066,0.08098364,0.049660206,inf,inf,inf,inf,inf,1,1,1,1,3,2,2,1,2,1,1,1,0,2,0,0
1777227222261000,1777227222261000,1777227106893000,47.397742099999995,8.5455942,103.0919,-0.02817836,0.09088135,-0.0019206639,-0.002875626,-488.1121,-0.01203961,0.0033491726,-0.0057641715,0.0074666175,-0.0017447465,0.0049493075,-6.0223043e-05,-0.017118627,0.012834694,0.01711631,-0.0015305642,0.0004443332,-0.004279627,-0.0042710165,0.00037833973,488.1121,0.010009766,1e-04,-488.1121,0.12170904,0.11401591,0.0812848,0.04974379,inf,inf,inf,inf,inf,1,1,1,1,3,2,2,1,2,1,1,1,0,2,0,0
1777227222269000,1777227222269000,1777227106893000,47.397742099999995,8.5455942,103.09193,-0.02809667,0.090911865,-0.0019206639,-0.002875626,-488.1121,-0.011817391,0.0034302175,-0.005478598,0.0077203214,-0.0017447465,0.0049493075,-6.0223043e-05,0.018149175,0.005777501,0.03208499,-0.0014606278,0.0004444402,-0.0042116684,-0.0042710165,0.0003783839,488.1121,0.010009766,1e-04,-488.1121,0.1221233,0.1142706,0.08158525,0.04982695,inf,inf,inf,inf,inf,1,1,1,1,3,2,2,1,2,1,1,1,0,2,0,0
1777227222277000,1777227222277000,1777227106893000,47.397742099999995,8.5455942,103.09197,-0.028014833,0.09094238,-0.0019206639,-0.002875626,-488.1121,-0.011982176,0.0036827403,-0.005323065,0.007855549,-0.0017447465,0.0049493075,-6.0223043e-05,-0.032022152,0.02723698,0.015265307,-0.0014535352,0.00044453176,-0.0042064213,-0.0042710165,0.00037814723,488.1121,0.010009766,1e-04,-488.1121,0.11987705,0.11293718,0.07993892,0.04937609,inf,inf,inf,inf,inf,1,1,1,1,3,2,2,1,2,1,1,1,0,2,0,0
1777227222285000,1777227222285000,1777227106893000,47.397742099999995,8.5455942,103.09201,-0.02793331,0.0909729,-0.0019206639,-0.002875626,-488.1121,-0.0119433915,0.00398869,-0.0053656236,0.0077886167,-0.0017447465,0.0049493075,-6.0223043e-05,-0.0058807335,0.0341713,-0.009330454,-0.0014350961,0.00044380594,-0.004189683,-0.0042710165,0.00037818035,488.1121,0.010009766,1e-04,-488.1121,0.120276704,0.11312954,0.08022874,0.049449723,inf,inf,inf,inf,inf,1,1,1,1,3,2,2,1,2,1,1,1,0,2,0,0
1777227222293000,1777227222293000,1777227106893000,47.397742099999995,8.5455942,103.09204,-0.027852682,0.091033936,-0.0019206639,-0.002875626,-488.1121,-0.012259615,0.0039095418,-0.0056225886,0.0075043743,-0.0017447465,0.0049493075,-6.0223043e-05,-0.049969316,-0.013820788,-0.035995614,-0.0014469989,0.00044391275,-0.004203817,-0.0042710165,0.00037822442,488.1121,0.010009766,1e-04,-488.1121,0.12068126,0.11338126,0.080528595,0.049533572,inf,inf,inf,inf,inf,1,1,1,1,3,2,2,1,2,1,1,1,0,2,0,0
1777227222301000,1777227222301000,1777227106893000,47.397742099999995,8.5455942,103.09207,-0.027774744,0.09106445,-0.0019206639,-0.002875626,-488.1121,-0.01228078,0.0039283745,-0.0060106074,0.0070862933,-0.0017447465,0.0049493075,-6.0223043e-05,-0.012802875,-0.0014285468,-0.052245796,-0.001504614,0.00044401948,-0.004263546,-0.0042710165,0.00037826842,488.1121,0.010009766,1e-04,-488.1121,0.12108857,0.11363383,0.08082786,0.049617324,inf,inf,inf,inf,inf,1,1,1,1,3,2,2,1,2,1,1,1,0,2,0,0
1777227222309000,1777227222309000,1777227106893000,47.397742099999995,8.5455942,103.092094,-0.027697979,0.09109497,-0.0019206639,-0.002875626,-488.1121,-0.012144281,0.0040489687,-0.0059501515,0.0071139964,-0.0017447465,0.0049493075,-6.0223043e-05,0.0071823723,0.011433554,0.0039413567,-0.0015282931,0.00044412617,-0.0042892285,-0.0042710165,0.0003783124,488.1121,0.010009766,1e-04,-488.1121,0.12149863,0.11388724,0.08112787,0.04970098,inf,inf,inf,inf,inf,1,1,1,1,3,2,2,1,2,1,1,1,0,2,0,0
1777227222317000,1777227222317000,1777227106893000,47.397742099999995,8.5455942,103.092125,-0.027621478,0.09109497,-0.0019206639,-0.002875626,-488.1121,-0.011768023,0.004399059,-0.006246345,0.0067824353,-0.0017447465,0.0049493075,-6.0223043e-05,0.037418988,0.040257797,-0.040515788,-0.0015639501,0.0004442331,-0.004326826,-0.0042710165,0.00037835655,488.1121,0.010009766,1e-04,-488.1121,0.12191145,0.1141415,0.081427455,0.049784526,inf,inf,inf,inf,inf,1,1,1,1,3,2,2,1,2,1,1,1,0,2,0,0
1777227222325000,1777227222325000,1777227106893000,47.397742099999995,8.5455942,103.09217,-0.027537396,0.09112549,-0.0019206639,-0.002875626,-488.1121,-0.011573597,0.0047232313,-0.006425754,0.006569216,-0.0017447465,0.0049493075,-6.0223043e-05,0.012976686,0.036843017,-0.026100779,-0.0015600274,0.0004443244,-0.004324787,-0.0042710165,0.0003781225,488.1121,0.010009766,1e-04,-488.1121,0.11968023,0.11281326,0.07979224,0.049335517,inf,inf,inf,inf,inf,1,1,1,1,3,2,2,1,2,1,1,1,0,2,0,0
1777227222333000,1777227222333000,1777227106893000,47.397742099999995,8.5455942,103.09222,-0.027452996,0.091156006,-0.0019206639,-0.002875626,-488.1121,-0.011572447,0.0049941307,-0.0066966973,0.0062617566,-0.0017447465,0.0049493075,-6.0223043e-05,-0.010873896,0.030322574,-0.037416812,-0.0015714302,0.00044443138,-0.0043380167,-0.0042710165,0.0003781665,488.1121,0.010009766,1e-04,-488.1121,0.12008077,0.11306385,0.08009081,0.049419623,inf,inf,inf,inf,inf,1,1,1,1,3,2,2,1,2,1,1,1,0,2,0,0
1777227222341000,1777227222341000,1777227106893000,47.397742099999995,8.5455942,103.09226,-0.027368076,0.091156006,-0.0019206639,-0.002875626,-488.1121,-0.0118058575,0.0053664474,-0.0067295074,0.0061898287,-0.0017447465,0.0049493075,-6.0223043e-05,-0.03989649,0.04314022,-0.0075134444,-0.0016039711,0.0004445384,-0.004372338,-0.0042710165,0.0003782104,488.1121,0.010009766,1e-04,-488.1121,0.12048404,0.11325645,0.080390796,0.049493123,inf,inf,inf,inf,inf,1,1,1,1,3,2,2,1,2,1,1,1,0,2,0,0
1777227222349000,1777227222349000,1777227106893000,47.397742099999995,8.5455942,103.0923,-0.027281776,0.091156006,-0.0019206639,-0.002875626,-488.1121,-0.012043185,0.0057982593,-0.006571961,0.0063058473,-0.0017447465,0.0049493075,-6.0223043e-05,-0.040093713,0.050707318,0.016399192,-0.0015702228,0.00044464544,-0.004340327,-0.0042710165,0.00037825448,488.1121,0.010009766,1e-04,-488.1121,0.12089005,0.113508604,0.08069123,0.049576927,inf,inf,inf,inf,inf,1,1,1,1,3,2,2,1,2,1,1,1,0,2,0,0
1777227222357000,1777227222357000,1777227106893000,47.397742099999995,8.5455942,103.09233,-0.027193537,0.09118652,-0.0019206639,-0.002875626,-488.1121,-0.012339317,0.006276414,-0.00627182,0.0065621845,-0.0017447465,0.0049493075,-6.0223043e-05,-0.0472326,0.056603536,0.034338325,-0.0014632654,0.00044391968,-0.0042350693,-0.0042710165,0.0003782878,488.1121,0.010009766,1e-04,-488.1121,0.12129648,0.113761604,0.08098171,0.04966069,inf,inf,inf,inf,inf,1,1,1,1,3,2,2,1,2,1,1,1,0,2,0,0
1777227222365000,1777227222365000,1777227106893000,47.397742099999995,8.5455942,103.09236,-0.027104136,0.09118652,-0.0019206639,-0.002875626,-488.1121,-0.012435049,0.0065134414,-0.0058232164,0.0069647804,-0.0017447465,0.0049493075,-6.0223043e-05,-0.021903854,0.026584495,0.053007618,-0.0014787716,0.0004440264,-0.004252084,-0.0042710165,0.00037833187,488.1121,0.010009766,1e-04,-488.1121,0.12170795,0.114015445,0.08128131,0.0497441,inf,inf,inf,inf,inf,1,1,1,1,3,2,2,1,2,1,1,1,0,2,0,0
1777227222373000,1777227222373000,1777227106893000,47.397742099999995,8.5455942,103.092384,-0.02701506,0.09118652,-0.0019206639,-0.002875626,-488.1121,-0.0125169195,0.006696311,-0.0058397613,0.006900068,-0.0017447465,0.0049493075,-6.0223043e-05,-0.019897427,0.019933589,-0.0050277445,-0.0015036723,0.00044413315,-0.0042784656,-0.0042710165,0.00037837596,488.1121,0.010009766,1e-04,-488.1121,0.12212219,0.11427014,0.081580944,0.049827397,inf,inf,inf,inf,inf,1,1,1,1,3,2,2,1,2,1,1,1,0,2,0,0
1777227222381000,1777227222381000,1777227106893000,47.397742099999995,8.5455942,103.09244,-0.026935287,0.09121704,-0.0019206639,-0.002875626,-488.1121,-0.012686649,0.006853271,-0.0059663854,0.006738357,-0.0017447465,0.0049493075,-6.0223043e-05,-0.03309389,0.017434103,-0.019372439,-0.001491507,0.00044422384,-0.004267757,-0.0042710165,0.0003781397,488.1121,0.010009766,1e-04,-488.1121,0.11987607,0.112936735,0.07993452,0.049376428,inf,inf,inf,inf,inf,1,1,1,1,3,2,2,1,2,1,1,1,0,2,0,0
1777227222389000,1777227222389000,1777227106893000,47.397742099999995,8.5455942,103.09249,-0.026855724,0.09124756,-0.0019206639,-0.002875626,-488.1121,-0.012654897,0.0069935005,-0.005802226,0.006863823,-0.0017447465,0.0049493075,-6.0223043e-05,-0.0075855874,0.015435192,0.01713354,-0.0014798781,0.00044433077,-0.0042574867,-0.0042710165,0.0003781836,488.1121,0.010009766,1e-04,-488.1121,0.12027792,0.113129094,0.080233485,0.049450174,inf,inf,inf,inf,inf,1,1,1,1,3,2,2,1,2,1,1,1,0,2,0,0
1777227222397000,1777227222397000,1777227106893000,47.397742099999995,8.5455942,103.09254,-0.026776008,0.09124756,-0.0019206639,-0.002875626,-488.1121,-0.012684823,0.0072754067,-0.0057544964,0.006870382,-0.0017447465,0.0049493075,-6.0223043e-05,-0.014982704,0.033235036,0.00269711,-0.0014978732,0.00044443776,-0.0042768177,-0.0042710165,0.00037822768,488.1121,0.010009766,1e-04,-488.1121,0.1206825,0.11338082,0.08053276,0.049533907,inf,inf,inf,inf,inf,1,1,1,1,3,2,2,1,2,1,1,1,0,2,0,0
1777227222405000,1777227222405000,1777227106893000,47.397742099999995,8.5455942,103.092575,-0.02669726,0.091278076,-0.0019206639,-0.002875626,-488.1121,-0.012436328,0.007042482,-0.0056530177,0.00692832,-0.0017447465,0.0049493075,-6.0223043e-05,0.020123608,-0.031027934,0.009529757,-0.0014808832,0.0004445446,-0.0042611114,-0.0042710165,0.00037827162,488.1121,0.010009766,1e-04,-488.1121,0.12108984,0.11363339,0.08083258,0.049617454,inf,inf,inf,inf,inf,1,1,1,1,3,2,2,1,2,1,1,1,0,2,0,0
1777227222413000,1777227222413000,1777227106893000,47.397742099999995,8.5455942,103.09262,-0.02662144,0.091278076,-0.0019206639,-0.002875626,-488.1121,-0.0122599825,0.0070217666,-0.005356969,0.0071785483,-0.0017447465,0.0049493075,-6.0223043e-05,0.011402607,-0.004412154,0.033961605,-0.0014518774,0.00044465164,-0.004233341,-0.0042710165,0.00037831577,488.1121,0.010009766,1e-04,-488.1121,0.12149992,0.113886796,0.081132114,0.049700964,inf,inf,inf,inf,inf,1,1,1,1,3,2,2,1,2,1,1,1,0,2,0,0
1777227222421000,1777227222421000,1777227106893000,47.397742099999995,8.5455942,103.09266,-0.02654311,0.091308594,-0.0019206639,-0.002875626,-488.1121,-0.012032469,0.007174589,-0.0053067743,0.007180683,-0.0017447465,0.0049493075,-6.0223043e-05,0.018328575,0.016777078,0.0033369286,-0.0014550858,0.00044392623,-0.004237741,-0.0042710165,0.00037834892,488.1121,0.010009766,1e-04,-488.1121,0.12191034,0.11414105,0.081422225,0.04978448,inf,inf,inf,inf,inf,1,1,1,1,3,2,2,1,2,1,1,1,0,2,0,0
1777227222429000,1777227222429000,1777227106893000,47.397742099999995,8.5455942,103.09273,-0.026468705,0.09133911,-0.0019206639,-0.002875626,-488.1121,-0.012095642,0.0070417374,-0.0049097287,0.007546627,-0.0017447465,0.0049493075,-6.0223043e-05,-0.020132653,-0.018526085,0.046018507,-0.0013906781,0.00044401683,-0.0041697733,-0.0042710165,0.00037811534,488.1121,0.010009766,1e-04,-488.1121,0.119679265,0.112812825,0.07978759,0.0493354,inf,inf,inf,inf,inf,1,1,1,1,3,2,2,1,2,1,1,1,0,2,0,0
1777227222437000,1777227222437000,1777227106893000,47.397742099999995,8.5455942,103.09279,-0.026395157,0.09136963,-0.0019206639,-0.002875626,-488.1121,-0.0116191665,0.0072640195,-0.004826916,0.007596481,-0.0017447465,0.0049493075,-6.0223043e-05,0.04790255,0.025926188,0.0068629156,-0.0013818867,0.0004439758,-0.004157334,-0.0042710165,0.0003781574,488.1121,0.010009766,1e-04,-488.1121,0.12007941,0.11306342,0.08008508,0.049419433,inf,inf,inf,inf,inf,1,1,1,1,3,2,2,1,2,1,1,1,0,2,0,0
1777227222445000,1777227222445000,1777227106893000,47.397742099999995,8.5455942,103.09286,-0.026322046,0.09140015,-0.0019206639,-0.002875626,-488.1121,-0.011506767,0.007104896,-0.004771523,0.0076181837,-0.0017447465,0.0049493075,-6.0223043e-05,0.0027095,-0.021664878,0.0035157425,-0.0014066034,0.00044408257,-0.0041788872,-0.0042710165,0.0003782013,488.1121,0.010009766,1e-04,-488.1121,0.12048265,0.113256015,0.080384836,0.04949266,inf,inf,inf,inf,inf,1,1,1,1,3,2,2,1,2,1,1,1,0,2,0,0
1777227222453000,1777227222453000,1777227106893000,47.397742099999995,8.5455942,103.09292,-0.026253037,0.09140015,-0.0019206639,-0.002875626,-488.1121,-0.011707695,0.0067089326,-0.0048977076,0.0074557154,-0.0017447465,0.0049493075,-6.0223043e-05,-0.03614491,-0.051182516,-0.019063706,-0.0013750996,0.00044418938,-0.0041441713,-0.0042710165,0.00037824537,488.1121,0.010009766,1e-04,-488.1121,0.120888636,0.11350817,0.08068534,0.049576346,inf,inf,inf,inf,inf,1,1,1,1,3,2,2,1,2,1,1,1,0,2,0,0
1777227222461000,1777227222461000,1777227106893000,47.397742099999995,8.5455942,103.09297,-0.026186995,0.091430664,-0.0019206639,-0.002875626,-488.1121,-0.011917478,0.006599877,-0.005011716,0.0073029795,-0.0017447465,0.0049493075,-6.0223043e-05,-0.036948927,-0.015240382,-0.017427372,-0.0014020303,0.00044429605,-0.004167845,-0.0042710165,0.00037828932,488.1121,0.010009766,1e-04,-488.1121,0.121297374,0.11376117,0.080985054,0.049660016,inf,inf,inf,inf,inf,1,1,1,1,3,2,2,1,2,1,1,1,0,2,0,0
1777227222469000,1777227222469000,1777227106893000,47.397742099999995,8.5455942,103.09302,-0.02612329,0.09146118,-0.0019206639,-0.002875626,-488.1121,-0.011749932,0.0063697593,-0.005025849,0.0072478065,-0.0017447465,0.0049493075,-6.0223043e-05,0.010508659,-0.030290242,-0.0048321667,-0.0014000797,0.0004444028,-0.004162596,-0.0042710165,0.0003783334,488.1121,0.010009766,1e-04,-488.1121,0.12170887,0.11401501,0.08128608,0.049743745,inf,inf,inf,inf,inf,1,1,1,1,3,2,2,1,2,1,1,1,0,2,0,0
1777227222477000,1777227222477000,1777227106893000,47.397742099999995,8.5455942,103.09307,-0.026062548,0.09146118,-0.0019206639,-0.002875626,-488.1121,-0.011890981,0.0061741853,-0.0050934074,0.0071370555,-0.0017447465,0.0049493075,-6.0223043e-05,-0.027778372,-0.025885826,-0.011402647,-0.0014654004,0.0004445096,-0.004224578,-0.0042710165,0.0003783775,488.1121,0.010009766,1e-04,-488.1121,0.12212314,0.114269696,0.08158703,0.04982724,inf,inf,inf,inf,inf,1,1,1,1,3,2,2,1,2,1,1,1,0,2,0,0
1777227222485000,1777227222485000,1777227106893000,47.397742099999995,8.5455942,103.09313,-0.026015261,0.09152222,-0.0019206639,-0.002875626,-488.1121,-0.012119185,0.0059393453,-0.0052204723,0.00698902,-0.0017447465,0.0049493075,-6.0223043e-05,-0.04019307,-0.029889494,-0.019755678,-0.0014831064,0.0004446004,-0.0042389072,-0.0042710165,0.0003781402,488.1121,0.010009766,1e-04,-488.1121,0.11987686,0.11293631,0.079941094,0.04937633,inf,inf,inf,inf,inf,1,1,1,1,3,2,2,1,2,1,1,1,0,2,0,0
1777227222493000,1777227222493000,1777227106893000,47.397742099999995,8.5455942,103.09319,-0.025970154,0.091552734,-0.0019206639,-0.002875626,-488.1121,-0.012149648,0.005823897,-0.005502547,0.0066831843,-0.0017447465,0.0049493075,-6.0223043e-05,-0.015235292,-0.01491147,-0.038996335,-0.0015111711,0.0004438751,-0.004263477,-0.0042710165,0.00037817337,488.1121,0.010009766,1e-04,-488.1121,0.120276526,0.11312868,0.08023116,0.04944983,inf,inf,inf,inf,inf,1,1,1,1,3,2,2,1,2,1,1,1,0,2,0,0
1777227222501000,1777227222501000,1777227106893000,47.397742099999995,8.5455942,103.09325,-0.025926724,0.09158325,-0.0019206639,-0.002875626,-488.1121,-0.012081826,0.005654207,-0.005785508,0.0063737696,-0.0017447465,0.0049493075,-6.0223043e-05,-0.0026329143,-0.021642538,-0.038980037,-0.0015394822,0.00044398181,-0.0042882944,-0.0042710165,0.00037821743,488.1121,0.010009766,1e-04,-488.1121,0.12068109,0.113380395,0.08053006,0.04953358,inf,inf,inf,inf,inf,1,1,1,1,3,2,2,1,2,1,1,1,0,2,0,0
1777227222509000,1777227222509000,1777227106893000,47.397742099999995,8.5455942,103.0933,-0.025884628,0.09158325,-0.0019206639,-0.002875626,-488.1121,-0.012032316,0.0057964325,-0.0057692276,0.0063609523,-0.0017447465,0.0049493075,-6.0223043e-05,-0.0046179923,0.017396638,-0.0014514661,-0.0015393785,0.00044408845,-0.004284662,-0.0042710165,0.00037826144,488.1121,0.010009766,1e-04,-488.1121,0.1210884,0.11363296,0.080828875,0.049617186,inf,inf,inf,inf,inf,1,1,1,1,3,2,2,1,2,1,1,1,0,2,0,0
1777227222517000,1777227222517000,1777227106893000,47.397742099999995,8.5455942,103.093346,-0.025841743,0.09161377,-0.0019206639,-0.002875626,-488.1121,-0.012231896,0.0060435166,-0.0058690533,0.006229394,-0.0017447465,0.0049493075,-6.0223043e-05,-0.035454094,0.03055223,-0.015845055,-0.0015176078,0.00044419515,-0.0042593284,-0.0042710165,0.0003783055,488.1121,0.010009766,1e-04,-488.1121,0.121498466,0.11388637,0.08112762,0.0497007,inf,inf,inf,inf,inf,1,1,1,1,3,2,2,1,2,1,1,1,0,2,0,0
1777227222525000,1777227222525000,1777227106893000,47.397742099999995,8.5455942,103.09339,-0.02579618,0.09164429,-0.0019206639,-0.002875626,-488.1121,-0.012456393,0.0065669697,-0.0061242855,0.005939846,-0.0017447465,0.0049493075,-6.0223043e-05,-0.038272362,0.06514224,-0.03515463,-0.0014768997,0.000444302,-0.004215028,-0.0042710165,0.00037834968,488.1121,0.010009766,1e-04,-488.1121,0.12191128,0.11414062,0.08142784,0.049784075,inf,inf,inf,inf,inf,1,1,1,1,3,2,2,1,2,1,1,1,0,2,0,0
1777227222533000,1777227222533000,1777227106893000,47.397742099999995,8.5455942,103.093445,-0.025767405,0.091674805,-0.0019206639,-0.002875626,-488.1121,-0.01235368,0.0068115434,-0.006141543,0.0059110117,-0.0017447465,0.0049493075,-6.0223043e-05,0.0015130121,0.031721123,-0.0063120383,-0.0014914643,0.0004443928,-0.0042259726,-0.0042710165,0.00037811504,488.1121,0.010009766,1e-04,-488.1121,0.11968006,0.11281242,0.07979358,0.049334966,inf,inf,inf,inf,inf,1,1,1,1,3,2,2,1,2,1,1,1,0,2,0,0
1777227222541000,1777227222541000,1777227106893000,47.397742099999995,8.5455942,103.09349,-0.025735328,0.09170532,-0.0019206639,-0.002875626,-488.1121,-0.012229747,0.00741981,-0.006424962,0.0056127063,-0.0017447465,0.0049493075,-6.0223043e-05,0.0044716513,0.077187546,-0.03944337,-0.0014932795,0.0004444996,-0.00422402,-0.0042710165,0.00037815896,488.1121,0.010009766,1e-04,-488.1121,0.12008059,0.11306301,0.0800922,0.049418934,inf,inf,inf,inf,inf,1,1,1,1,3,2,2,1,2,1,1,1,0,2,0,0
1777227222549000,1777227222549000,1777227106893000,47.397742099999995,8.5455942,103.09354,-0.025700763,0.09173584,-0.0019206639,-0.002875626,-488.1121,-0.012074871,0.007509195,-0.0067021535,0.005317431,-0.0017447465,0.0049493075,-6.0223043e-05,0.008641968,0.012329568,-0.038546972,-0.0015376573,0.00044460644,-0.004264605,-0.0042710165,0.00037820276,488.1121,0.010009766,1e-04,-488.1121,0.12048387,0.113255605,0.080391385,0.04949239,inf,inf,inf,inf,inf,1,1,1,1,3,2,2,1,2,1,1,1,0,2,0,0
1777227222557000,1777227222557000,1777227106893000,47.397742099999995,8.5455942,103.09358,-0.02566829,0.09176636,-0.0019206639,-0.002875626,-488.1121,-0.011979997,0.0075166435,-0.006367035,0.005631357,-0.0017447465,0.0049493075,-6.0223043e-05,0.0011497381,0.0026055202,0.03812322,-0.0015373139,0.00044388152,-0.0042604445,-0.0042710165,0.00037823603,488.1121,0.010009766,1e-04,-488.1121,0.1208876,0.113507755,0.08068148,0.049576133,inf,inf,inf,inf,inf,1,1,1,1,3,2,2,1,2,1,1,1,0,2,0,0
1777227222565000,1777227222565000,1777227106893000,47.397742099999995,8.5455942,103.09363,-0.025636224,0.09176636,-0.0019206639,-0.002875626,-488.1121,-0.011789652,0.007556236,-0.0058368756,0.0061382614,-0.0017447465,0.0049493075,-6.0223043e-05,0.013381229,0.006615573,0.062630974,-0.0015114055,0.00044398813,-0.0042348905,-0.0042710165,0.00037828006,488.1121,0.010009766,1e-04,-488.1121,0.12129632,0.11376074,0.08098055,0.04965977,inf,inf,inf,inf,inf,1,1,1,1,3,2,2,1,2,1,1,1,0,2,0,0
1777227222573000,1777227222573000,1777227106893000,47.397742099999995,8.5455942,103.093666,-0.025604477,0.091796875,-0.0019206639,-0.002875626,-488.1121,-0.0115806,0.007360003,-0.0060057556,0.005944103,-0.0017447465,0.0049493075,-6.0223043e-05,0.016005378,-0.022872113,-0.024625098,-0.0015654111,0.00044409477,-0.0042892294,-0.0042710165,0.00037832413,488.1121,0.010009766,1e-04,-488.1121,0.12170778,0.11401458,0.08128056,0.049743358,inf,inf,inf,inf,inf,1,1,1,1,3,2,2,1,2,1,1,1,0,2,0,0
1777227222581000,1777227222581000,1777227106893000,47.397742099999995,8.5455942,103.093704,-0.025575433,0.09182739,-0.0019206639,-0.002875626,-488.1121,-0.011566123,0.007089456,-0.0059691463,0.0059534363,-0.0017447465,0.0049493075,-6.0223043e-05,-0.008038394,-0.032170456,0.0011813826,-0.0016164539,0.00044420158,-0.0043405853,-0.0042710165,0.00037836834,488.1121,0.010009766,1e-04,-488.1121,0.12212201,0.11426926,0.08157982,0.04982659,inf,inf,inf,inf,inf,1,1,1,1,3,2,2,1,2,1,1,1,0,2,0,0
1777227222589000,1777227222589000,1777227106893000,47.397742099999995,8.5455942,103.09375,-0.02554526,0.09185791,-0.0019206639,-0.002875626,-488.1121,-0.011627542,0.0069690845,-0.0062026796,0.005702792,-0.0017447465,0.0049493075,-6.0223043e-05,-0.01853815,-0.013145619,-0.033015847,-0.0017097422,0.00044429192,-0.0044342927,-0.0042710165,0.00037813256,488.1121,0.010009766,1e-04,-488.1121,0.119875915,0.112935886,0.07993358,0.049375918,inf,inf,inf,inf,inf,1,1,1,1,3,2,2,1,2,1,1,1,0,2,0,0
1777227222597000,1777227222597000,1777227106893000,47.397742099999995,8.5455942,103.093796,-0.025516493,0.09188843,-0.0019206639,-0.002875626,-488.1121,-0.011582571,0.006927668,-0.006289337,0.0055966508,-0.0017447465,0.0049493075,-6.0223043e-05,-0.0049432158,-0.0032930546,-0.014522112,-0.0017501434,0.0004443988,-0.00447518,-0.0042710165,0.00037817645,488.1121,0.010009766,1e-04,-488.1121,0.120277755,0.113128245,0.080232576,0.04944944,inf,inf,inf,inf,inf,1,1,1,1,3,2,2,1,2,1,1,1,0,2,0,0
1777227222605000,1777227222605000,1777227106893000,47.397742099999995,8.5455942,103.093834,-0.02548663,0.091918945,-0.0019206639,-0.002875626,-488.1121,-0.011544499,0.007216814,-0.0062780124,0.005586225,-0.0017447465,0.0049493075,-6.0223043e-05,-0.0055206143,0.038015064,-0.0021490266,-0.001744629,0.00044450568,-0.004470247,-0.0042710165,0.00037822052,488.1121,0.010009766,1e-04,-488.1121,0.120682344,0.11337996,0.08053216,0.049532983,inf,inf,inf,inf,inf,1,1,1,1,3,2,2,1,2,1,1,1,0,2,0,0
1777227222613000,1777227222613000,1777227106893000,47.397742099999995,8.5455942,103.09387,-0.025455879,0.091918945,-0.0019206639,-0.002875626,-488.1121,-0.011544389,0.0072389673,-0.006204068,0.0056362753,-0.0017447465,0.0049493075,-6.0223043e-05,-0.009985168,0.0046267086,0.0058002765,-0.0017421058,0.0004446126,-0.004468401,-0.0042710165,0.00037826464,488.1121,0.010009766,1e-04,-488.1121,0.12108967,0.11363252,0.080832034,0.049616475,inf,inf,inf,inf,inf,1,1,1,1,3,2,2,1,2,1,1,1,0,2,0,0
1777227222621000,1777227222621000,1777227106893000,47.397742099999995,8.5455942,103.09391,-0.025425365,0.09194946,-0.0019206639,-0.002875626,-488.1121,-0.011735969,0.007210203,-0.006140177,0.005674231,-0.0017447465,0.0049493075,-6.0223043e-05,-0.033669923,-0.0017548335,0.0046617347,-0.0017277318,0.0004447197,-0.004454802,-0.0042710165,0.00037830893,488.1121,0.010009766,1e-04,-488.1121,0.12149975,0.113885924,0.08113206,0.0497,inf,inf,inf,inf,inf,1,1,1,1,3,2,2,1,2,1,1,1,0,2,0,0
1777227222629000,1777227222629000,1777227106893000,47.397742099999995,8.5455942,103.09394,-0.025395324,0.09197998,-0.0019206639,-0.002875626,-488.1121,-0.011615727,0.0072179767,-0.0060155108,0.005771015,-0.0017447465,0.0049493075,-6.0223043e-05,0.005465026,0.0027617242,0.012373551,-0.0017119852,0.00044399477,-0.004439929,-0.0042710165,0.0003783421,488.1121,0.010009766,1e-04,-488.1121,0.12191016,0.11414017,0.0814229,0.049783252,inf,inf,inf,inf,inf,1,1,1,1,3,2,2,1,2,1,1,1,0,2,0,0
1777227222637000,1777227222637000,1777227106893000,47.397742099999995,8.5455942,103.093994,-0.025376255,0.0920105,-0.0019206639,-0.002875626,-488.1121,-0.011582911,0.0070504006,-0.0058557955,0.005919193,-0.0017447465,0.0049493075,-6.0223043e-05,-0.0071750176,-0.018273963,0.016079282,-0.0016528872,0.00044393755,-0.004381572,-0.0042710165,0.00037810608,488.1121,0.010009766,1e-04,-488.1121,0.11967873,0.11281199,0.07978721,0.04933405,inf,inf,inf,inf,inf,1,1,1,1,3,2,2,1,2,1,1,1,0,2,0,0
1777227222645000,1777227222645000,1777227106893000,47.397742099999995,8.5455942,103.09404,-0.025359096,0.092041016,-0.0019206639,-0.002875626,-488.1121,-0.011679923,0.0068395264,-0.0056345053,0.0061265514,-0.0017447465,0.0049493075,-6.0223043e-05,-0.023094289,-0.023723518,0.023907049,-0.0015883504,0.0004440441,-0.0043179467,-0.0042710165,0.00037815003,488.1121,0.010009766,1e-04,-488.1121,0.12007924,0.113062575,0.080086865,0.049417935,inf,inf,inf,inf,inf,1,1,1,1,3,2,2,1,2,1,1,1,0,2,0,0
1777227222653000,1777227222653000,1777227106893000,47.397742099999995,8.5455942,103.094086,-0.025342418,0.09207153,-0.0019206639,-0.002875626,-488.1121,-0.01161264,0.0069671674,-0.005569248,0.0061756484,-0.0017447465,0.0049493075,-6.0223043e-05,-0.0022602319,0.018558795,0.0045299525,-0.0015822637,0.00044415068,-0.0043128757,-0.0042710165,0.00037819386,488.1121,0.010009766,1e-04,-488.1121,0.12048249,0.11325516,0.08038683,0.04949133,inf,inf,inf,inf,inf,1,1,1,1,3,2,2,1,2,1,1,1,0,2,0,0
1777227222661000,1777227222661000,1777227106893000,47.397742099999995,8.5455942,103.094124,-0.025323486,0.09210205,-0.0019206639,-0.002875626,-488.1121,-0.011501594,0.0072776005,-0.0056208344,0.0061048195,-0.0017447465,0.0049493075,-6.0223043e-05,0.003493955,0.041375507,-0.009952112,-0.0016116278,0.0004442573,-0.0043433593,-0.0042710165,0.00037823786,488.1121,0.010009766,1e-04,-488.1121,0.12088848,0.1135073,0.08068635,0.049575094,inf,inf,inf,inf,inf,1,1,1,1,3,2,2,1,2,1,1,1,0,2,0,0
1777227222669000,1777227222669000,1777227106893000,47.397742099999995,8.5455942,103.09416,-0.02530352,0.09213257,-0.0019206639,-0.002875626,-488.1121,-0.011693179,0.0072811935,-0.0060641966,0.005639263,-0.0017447465,0.0049493075,-6.0223043e-05,-0.03405148,0.002990582,-0.05880417,-0.0016381894,0.0004443641,-0.0043711453,-0.0042710165,0.00037828198,488.1121,0.010009766,1e-04,-488.1121,0.12129722,0.11376029,0.080986366,0.04965863,inf,inf,inf,inf,inf,1,1,1,1,3,2,2,1,2,1,1,1,0,2,0,0
1777227222677000,1777227222677000,1777227106893000,47.397742099999995,8.5455942,103.09419,-0.02528361,0.092163086,-0.0019206639,-0.002875626,-488.1121,-0.011778393,0.0073190634,-0.006159237,0.0055192364,-0.0017447465,0.0049493075,-6.0223043e-05,-0.020482894,0.007245458,-0.015147495,-0.0016422904,0.0004444709,-0.0043765763,-0.0042710165,0.00037832616,488.1121,0.010009766,1e-04,-488.1121,0.12170871,0.11401412,0.081287086,0.049742106,inf,inf,inf,inf,inf,1,1,1,1,3,2,2,1,2,1,1,1,0,2,0,0
1777227222685000,1777227222685000,1777227106893000,47.397742099999995,8.5455942,103.09422,-0.025262842,0.092163086,-0.0019206639,-0.002875626,-488.1121,-0.011437154,0.0074213464,-0.006126744,0.0055240984,-0.0017447465,0.0049493075,-6.0223043e-05,0.03309123,0.015268159,0.00090710813,-0.0016347575,0.00044457766,-0.0043704794,-0.0042710165,0.00037837029,488.1121,0.010009766,1e-04,-488.1121,0.12212298,0.114268795,0.08158759,0.049825553,inf,inf,inf,inf,inf,1,1,1,1,3,2,2,1,2,1,1,1,0,2,0,0
1777227222693000,1777227222693000,1777227106893000,47.397742099999995,8.5455942,103.09427,-0.02524695,0.09222412,-0.0019206639,-0.002875626,-488.1121,-0.0114477305,0.0072013233,-0.0062090997,0.005437829,-0.0017447465,0.0049493075,-6.0223043e-05,-0.0121693555,-0.024449091,-0.014408956,-0.0016522708,0.00044383763,-0.0043895366,-0.0042710165,0.00037812215,488.1121,0.010009766,1e-04,-488.1121,0.119874544,0.112935446,0.07993272,0.049374852,inf,inf,inf,inf,inf,1,1,1,1,3,2,2,1,2,1,1,1,0,2,0,0
1777227222701000,1777227222701000,1777227106893000,47.397742099999995,8.5455942,103.09431,-0.025232263,0.09225464,-0.0019206639,-0.002875626,-488.1121,-0.011231894,0.007169957,-0.006049228,0.005591474,-0.0017447465,0.0049493075,-6.0223043e-05,0.016428731,-0.0009077375,0.015980097,-0.0016491857,0.00044394427,-0.004388103,-0.0042710165,0.00037816603,488.1121,0.010009766,1e-04,-488.1121,0.12027638,0.1131278,0.08023259,0.049448486,inf,inf,inf,inf,inf,1,1,1,1,3,2,2,1,2,1,1,1,0,2,0,0
1777227222709000,1777227222709000,1777227106893000,47.397742099999995,8.5455942,103.094345,-0.025216503,0.092285156,-0.0019206639,-0.002875626,-488.1121,-0.010912875,0.007420869,-0.0059971698,0.005634076,-0.0017447465,0.0049493075,-6.0223043e-05,0.029615514,0.03433484,0.0026375053,-0.0016566276,0.00044405105,-0.0043973075,-0.0042710165,0.0003782102,488.1121,0.010009766,1e-04,-488.1121,0.12068095,0.11337951,0.08053114,0.0495323,inf,inf,inf,inf,inf,1,1,1,1,3,2,2,1,2,1,1,1,0,2,0,0
1777227222717000,1777227222717000,1777227106893000,47.397742099999995,8.5455942,103.09438,-0.025198264,0.092315674,-0.0019206639,-0.002875626,-488.1121,-0.011082851,0.0077931206,-0.0064107375,0.005207834,-0.0017447465,0.0049493075,-6.0223043e-05,-0.031226546,0.0494576,-0.055435576,-0.0016811957,0.00044415786,-0.004423752,-0.0042710165,0.00037825445,488.1121,0.010009766,1e-04,-488.1121,0.12108827,0.11363206,0.080829516,0.049616054,inf,inf,inf,inf,inf,1,1,1,1,3,2,2,1,2,1,1,1,0,2,0,0
1777227222725000,1777227222725000,1777227106893000,47.397742099999995,8.5455942,103.09441,-0.025176542,0.09234619,-0.0019206639,-0.002875626,-488.1121,-0.011295394,0.008182612,-0.0069115493,0.0046912064,-0.0017447465,0.0049493075,-6.0223043e-05,-0.036272835,0.051570874,-0.0662147,-0.0017192056,0.00044426462,-0.00446364,-0.0042710165,0.0003782986,488.1121,0.010009766,1e-04,-488.1121,0.12149833,0.11388546,0.08112993,0.04969962,inf,inf,inf,inf,inf,1,1,1,1,3,2,2,1,2,1,1,1,0,2,0,0
1777227222733000,1777227222733000,1777227106893000,47.397742099999995,8.5455942,103.094444,-0.02515339,0.09237671,-0.0019206639,-0.002875626,-488.1121,-0.011269009,0.008111285,-0.0069517232,0.004632212,-0.0017447465,0.0049493075,-6.0223043e-05,-0.0061428845,-0.0060706283,-0.008512287,-0.001715305,0.00044437128,-0.0044616195,-0.0042710165,0.0003783427,488.1121,0.010009766,1e-04,-488.1121,0.12191115,0.114139706,0.08143002,0.04978295,inf,inf,inf,inf,inf,1,1,1,1,3,2,2,1,2,1,1,1,0,2,0,0
1777227222741000,1777227222741000,1777227106893000,47.397742099999995,8.5455942,103.094475,-0.025128894,0.09240723,-0.0019206639,-0.002875626,-488.1121,-0.011227277,0.007857656,-0.0071339654,0.004447471,-0.0017447465,0.0049493075,-6.0223043e-05,-0.0047424054,-0.02874416,-0.026965512,-0.0016769329,0.0004444618,-0.004425131,-0.0042710165,0.0003781074,488.1121,0.010009766,1e-04,-488.1121,0.11967991,0.11281154,0.07979592,0.04933388,inf,inf,inf,inf,inf,1,1,1,1,3,2,2,1,2,1,1,1,0,2,0,0
1777227222749000,1777227222749000,1777227106893000,47.397742099999995,8.5455942,103.0945,-0.025103375,0.092437744,-0.0019206639,-0.002875626,-488.1121,-0.011097382,0.008353251,-0.0072778445,0.0042976616,-0.0017447465,0.0049493075,-6.0223043e-05,0.006544878,0.06486546,-0.0220309,-0.0015984222,0.00044456846,-0.0043484718,-0.0042710165,0.00037815128,488.1121,0.010009766,1e-04,-488.1121,0.120080456,0.11306212,0.08009519,0.04941784,inf,inf,inf,inf,inf,1,1,1,1,3,2,2,1,2,1,1,1,0,2,0,0
1777227222757000,1777227222757000,1777227106893000,47.397742099999995,8.5455942,103.09452,-0.025073815,0.09246826,-0.0019206639,-0.002875626,-488.1121,-0.01141991,0.008764562,-0.007053048,0.004514236,-0.0017447465,0.0049493075,-6.0223043e-05,-0.049747318,0.054290187,0.024157109,-0.0015463363,0.0004446752,-0.0042982358,-0.0042710165,0.00037819508,488.1121,0.010009766,1e-04,-488.1121,0.12048374,0.11325471,0.080394514,0.049491357,inf,inf,inf,inf,inf,1,1,1,1,3,2,2,1,2,1,1,1,0,2,0,0
1777227222765000,1777227222765000,1777227106893000,47.397742099999995,8.5455942,103.094536,-0.025041752,0.09246826,-0.0019206639,-0.002875626,-488.1121,-0.011544054,0.008903353,-0.006981414,0.004574431,-0.0017447465,0.0049493075,-6.0223043e-05,-0.024859935,0.020106,0.00514416,-0.0014390443,0.00044395096,-0.0041927886,-0.0042710165,0.00037822835,488.1121,0.010009766,1e-04,-488.1121,0.12088747,0.11350685,0.08068465,0.04957507,inf,inf,inf,inf,inf,1,1,1,1,3,2,2,1,2,1,1,1,0,2,0,0
1777227222773000,1777227222773000,1777227106893000,47.397742099999995,8.5455942,103.09455,-0.025010109,0.09249878,-0.0019206639,-0.002875626,-488.1121,-0.011944021,0.008676556,-0.007172218,0.004369075,-0.0017447465,0.0049493075,-6.0223043e-05,-0.059084706,-0.025629796,-0.027532222,-0.0014486606,0.00044405763,-0.0042036404,-0.0042710165,0.0003782725,488.1121,0.010009766,1e-04,-488.1121,0.121296205,0.11375984,0.08098418,0.049658556,inf,inf,inf,inf,inf,1,1,1,1,3,2,2,1,2,1,1,1,0,2,0,0
