timestamp,timestamp_sample,ref_timestamp,ref_lat,ref_lon,x,y,z,delta_xy[0],delta_xy[1],delta_z,vx,vy,vz,z_deriv,delta_vxy[0],delta_vxy[1],delta_vz,ax,ay,az,heading,delta_heading,ref_alt,dist_bottom,eph,epv,evh,evv,vxy_max,vz_max,hagl_min,hagl_max,xy_valid,z_valid,v_xy_valid,v_z_valid,xy_reset_counter,z_reset_counter,vxy_reset_counter,vz_reset_counter,heading_reset_counter,heading_good_for_control,xy_global,z_global,dist_bottom_valid,dist_bottom_sensor_bitfield,dead_reckoning
1777320737429000,1777320737429000,0,nan,nan,-0.003832694,0.0014689026,-0.010449368,1.7840765e-08,8.028467e-09,0.0,-0.016118977,0.0067469804,-0.045006152,-0.036005475,4.460191e-06,2.0071166e-06,0.00063274056,-0.021331819,-0.016259156,-0.12642702,0.018165197,0.0,nan,0.11572717,0.021769688,5.7735043,0.23481323,0.036436174,inf,inf,inf,inf,0,0,0,0,1,1,1,1,0,0,0,0,0,0,1
1777320737925000,1777320737925000,0,nan,nan,-0.0028987564,-0.0009789128,0.024551017,1.7840765e-08,8.028467e-09,0.0,-0.0036101188,-0.0052366145,-0.008918574,0.030966187,4.460191e-06,2.0071166e-06,0.00063274056,0.041324176,0.023531914,-0.00022910534,0.017543899,-0.004061835,nan,0.13977866,0.030574251,1.278883,0.1630853,0.037757717,inf,inf,inf,inf,0,1,0,1,1,1,1,1,1,0,0,0,0,0,1
1777320738429000,1777320738429000,0,nan,nan,-0.0004917285,0.0007671903,0.041269682,1.7840765e-08,8.028467e-09,0.0,-0.00315304,0.004714644,-0.0021881296,0.028763136,4.460191e-06,2.0071166e-06,0.00063274056,-0.0058432557,0.0049750903,-0.014767981,0.012365326,-0.004061835,nan,0.08232119,0.019954875,0.8621943,0.13159573,0.06895127,inf,inf,inf,inf,0,1,0,1,1,1,1,1,1,0,0,0,0,0,1
1777320738925000,1777320738925000,0,nan,nan,0.0009007391,-0.0019291941,0.022327755,1.7840765e-08,8.028467e-09,0.0,0.004626942,-0.0093040615,0.0028446417,0.0057563963,4.460191e-06,2.0071166e-06,0.00063274056,0.001734097,-0.019466007,-0.060224902,0.010704371,-0.004061835,nan,0.09180397,0.025989909,0.68133473,0.117189005,0.08889768,inf,inf,inf,inf,0,1,0,1,1,1,1,1,1,0,0,0,0,0,1
1777320739429000,1777320739429000,0,nan,nan,0.002934876,-0.0030397358,0.017403496,1.7840765e-08,8.028467e-09,0.0,0.005179082,-0.0075369477,0.0045577115,0.002014401,4.460191e-06,2.0071166e-06,0.00063274056,-0.01296958,0.013024903,0.03909878,0.0094659515,-0.004061835,nan,0.0987231,0.014038465,0.5988002,0.059410755,0.08926995,inf,inf,inf,inf,0,1,0,1,1,1,1,1,1,0,0,0,0,0,1
1777320739925000,1777320739925000,0,nan,nan,0.00063677406,-0.0012334752,0.02023824,1.7840765e-08,8.028467e-09,0.0,-0.0011296947,-0.0032965948,0.004130574,0.003726661,4.460191e-06,2.0071166e-06,0.00063274056,0.056358647,-0.068472385,-0.0018542631,0.00808858,-0.004061835,nan,0.09745489,0.017066734,0.52971995,0.059844654,0.09203701,inf,inf,inf,inf,0,1,0,1,1,1,1,1,1,0,0,0,0,0,1
1777320740429000,1777320740429000,0,nan,nan,-0.0011154586,-0.0014510712,0.017955594,1.7840765e-08,8.028467e-09,0.0,-0.004791446,-0.0060407273,0.0027519115,5.9285623e-05,4.460191e-06,2.0071166e-06,0.00063274056,-0.072066315,0.014800622,0.02778135,0.010959529,-0.004061835,nan,0.09481082,0.0115997875,0.48988378,0.042430513,0.0841044,inf,inf,inf,inf,0,1,0,1,1,1,1,1,1,0,0,0,0,0,1
1777320740925000,1777320740925000,0,nan,nan,-0.0022159268,-0.002566724,0.013063966,1.7840765e-08,8.028467e-09,0.0,-0.005950412,-0.009590852,0.002469147,-0.0031384446,4.460191e-06,2.0071166e-06,0.00063274056,0.009121813,-0.021357678,0.07053743,0.010232269,-0.004061835,nan,0.096932285,0.014024176,0.45580405,0.046185225,0.083827406,inf,inf,inf,inf,0,1,0,1,1,1,1,1,1,0,0,0,0,0,1
1777320741429000,1777320741429000,0,nan,nan,-0.0017593652,-0.0039044232,0.009995574,1.7840765e-08,8.028467e-09,0.0,-0.0038470023,-0.010701143,0.0038269227,-0.0024361245,4.460191e-06,2.0071166e-06,0.00063274056,-0.014477567,-0.030945633,0.00837352,0.009040998,-0.004061835,nan,0.09865394,0.017137727,0.42949402,0.050288696,0.08338931,inf,inf,inf,inf,0,1,0,1,1,1,1,1,1,0,0,0,0,0,1
1777320741925000,1777320741925000,0,nan,nan,-0.0005807321,-0.0026610724,0.012084229,1.7840765e-08,8.028467e-09,0.0,-0.00080754614,-0.0053876555,0.004247768,0.0014798542,4.460191e-06,2.0071166e-06,0.00063274056,-0.016029973,-0.0247644,-0.038445923,0.0074396776,-0.004061835,nan,0.10027918,0.012287446,0.40657064,0.039993055,0.07680591,inf,inf,inf,inf,0,1,0,1,1,1,1,1,1,0,0,0,0,0,1
1777320742429000,1777320742429000,0,nan,nan,0.00028766174,-0.00043340685,0.012820806,1.7840765e-08,8.028467e-09,0.0,0.00031299278,-0.0003977329,0.0041396455,0.0015606836,4.460191e-06,2.0071166e-06,0.00063274056,-0.03007806,-0.06692473,-0.039946284,0.009691884,-0.004061835,nan,0.09832282,0.01500081,0.38953143,0.04432698,0.077252425,inf,inf,inf,inf,0,1,0,1,1,1,1,1,1,0,0,0,0,0,1
1777320742925000,1777320742925000,0,nan,nan,-0.00011690423,0.00093469466,0.008269437,1.7840765e-08,8.028467e-09,0.0,-0.0032990666,-3.3764056e-05,0.005641018,-0.0010228811,4.460191e-06,2.0071166e-06,0.00063274056,-0.019419067,-0.026919255,0.048291866,0.008282739,-0.004061835,nan,0.096333615,0.011040141,0.37535983,0.036060665,0.07263306,inf,inf,inf,inf,0,1,0,1,1,1,1,1,1,0,0,0,0,0,1
1777320743429000,1777320743429000,0,nan,nan,-0.0019839793,0.0024884415,0.0051036584,1.7840765e-08,8.028467e-09,0.0,-0.0049861227,0.0060059465,0.00249163,-0.005095915,4.460191e-06,2.0071166e-06,0.00063274056,-0.04904092,-0.04141041,0.061339695,0.008368373,-0.004061835,nan,0.098843195,0.013414665,0.36141935,0.040392585,0.07385414,inf,inf,inf,inf,0,1,0,1,1,1,1,1,1,0,0,0,0,0,1
1777320743925000,1777320743925000,0,nan,nan,-0.0003646637,0.003910637,0.0026063353,1.7840765e-08,8.028467e-09,0.0,0.0016781546,0.0074771917,0.004766164,-0.00242576,4.460191e-06,2.0071166e-06,0.00063274056,-0.02491706,0.0058488655,0.014686025,0.009289272,-0.004061835,nan,0.10048646,0.015977869,0.35156438,0.044091765,0.07517935,inf,inf,inf,inf,0,1,0,1,1,1,1,1,1,0,0,0,0,0,1
1777320744429000,1777320744429000,0,nan,nan,0.0023656832,0.0035084975,-0.0007044322,1.7840765e-08,8.028467e-09,0.0,0.0073940647,0.007134555,0.002686436,-0.0052109095,4.460191e-06,2.0071166e-06,0.00063274056,0.024847914,-0.029572539,-0.051840205,0.01101249,-0.004061835,nan,0.09990171,0.012130125,0.3394914,0.037355263,0.071964905,inf,inf,inf,inf,0,1,0,1,1,1,1,1,1,0,0,0,0,0,1
1777320744925000,1777320744925000,0,nan,nan,0.0028907645,0.002634358,-0.0047781654,1.7840765e-08,8.028467e-09,0.0,0.004513736,0.0051597087,0.0018664738,-0.006462911,4.460191e-06,2.0071166e-06,0.00063274056,-0.0034639104,-0.01595687,0.010458752,0.012030849,-0.004061835,nan,0.10057224,0.01444352,0.3340977,0.04106903,0.073661916,inf,inf,inf,inf,0,1,0,1,1,1,1,1,1,0,0,0,0,0,1
1777320745429000,1777320745429000,0,nan,nan,0.0013991159,0.0023336988,-0.005729536,1.7840765e-08,8.028467e-09,0.0,-0.00013260977,0.007773886,-0.00076415995,-0.0067108534,4.460191e-06,2.0071166e-06,0.00063274056,0.0086301,-0.006498874,-0.03513973,0.014561828,-0.004061835,nan,0.101196475,0.011053858,0.32448202,0.03479885,0.07075973,inf,inf,inf,inf,0,1,0,1,1,1,1,1,1,0,0,0,0,0,1
1777320745925000,1777320745925000,0,nan,nan,0.0008091432,0.0034770276,-0.006150339,1.7840765e-08,8.028467e-09,0.0,0.0057534976,0.0077040517,0.0020771984,-0.0020460705,4.460191e-06,2.0071166e-06,0.00063274056,0.0653472,0.0256714,0.00080466265,0.029941993,0.0094179,nan,0.1008254,0.017550616,0.3194018,0.106871694,0.07253176,inf,inf,inf,inf,0,1,0,1,1,1,1,1,2,0,0,0,0,0,1
1777320746429000,1777320746429000,0,nan,nan,0.0019306805,0.00022352266,-0.0065583074,1.7840765e-08,8.028467e-09,0.0,0.0059795985,0.0006539887,0.0011877505,-0.0022033004,4.460191e-06,2.0071166e-06,0.00063274056,0.01710037,-0.0139203835,-0.019650904,0.024952129,0.0094179,nan,0.101441085,0.023031412,0.31663764,0.08087132,0.07456903,inf,inf,inf,inf,0,1,0,1,1,1,1,1,2,0,0,0,0,0,1
1777320746925000,1777320746925000,1777320746705000,47.397742099999995,8.545594,0.0016263803,-0.0013944232,-0.0061184,1.7840765e-08,8.028467e-09,0.0,0.0031857402,-0.0038369594,-0.0029253724,-0.0036764587,4.460191e-06,2.0071166e-06,0.00063274056,-0.0065679504,-0.0003900495,0.024852341,0.021881757,0.0094179,487.9868,0.10244112,0.013060222,0.30915898,0.042612623,0.071590014,inf,inf,inf,inf,0,1,0,1,1,1,1,1,2,0,1,1,0,0,1
1777320747429000,1777320747429000,1777320746705000,47.397742099999995,8.545594,0.0003219414,-0.0033475014,-0.0060968734,1.7840765e-08,8.028467e-09,0.0,-0.00014423126,-0.008880699,-0.0013652303,-0.0010566865,4.460191e-06,2.0071166e-06,0.00063274056,0.017384836,0.010852261,-0.008589587,0.020368692,0.0094179,487.9868,0.10104579,0.015194281,0.30520812,0.042863913,0.07359575,inf,inf,inf,inf,0,1,0,1,1,1,1,1,2,0,1,1,0,0,1
1777320747925000,1777320747925000,1777320746705000,47.397742099999995,8.545594,-0.0005526662,-0.0035091918,-0.0057415,1.7840765e-08,8.028467e-09,0.0,-2.311645e-05,-0.005904135,0.0003718907,0.00050805527,4.460191e-06,2.0071166e-06,0.00063274056,-0.015320979,0.016127156,-0.012097879,0.020245014,0.0094179,487.9868,0.10009178,0.011067689,0.30238733,0.03445802,0.07074772,inf,inf,inf,inf,0,1,0,1,1,1,1,1,2,0,1,1,0,0,1
1777320748429000,1777320748429000,1777320746705000,47.397742099999995,8.545594,0.0010253021,-0.0025117795,-0.0057729036,1.7840765e-08,8.028467e-09,0.0,0.00443204,-0.0030589898,-0.0020540662,-0.0014461841,4.460191e-06,2.0071166e-06,0.00063274056,0.040447615,0.04061766,0.009541399,0.021104844,0.0094179,487.9868,0.10108302,0.013266907,0.30027297,0.038168572,0.07274861,inf,inf,inf,inf,0,1,0,1,1,1,1,1,2,0,1,1,0,0,1
1777320748925000,1777320748925000,1777320746705000,47.397742099999995,8.545594,0.0019368614,-0.00012723877,-0.0054322104,1.7840765e-08,8.028467e-09,0.0,0.0049956637,0.002340793,-0.0012859607,-0.000118845186,4.460191e-06,2.0071166e-06,0.00063274056,0.029636411,0.016489103,0.023898667,0.0217916,0.0094179,487.9868,0.099775165,0.015675863,0.29845884,0.0415608,0.07459476,inf,inf,inf,inf,0,1,0,1,1,1,1,1,2,0,1,1,0,0,1
1777320749429000,1777320749429000,1777320746705000,47.397742099999995,8.545594,0.00047586646,0.00034257097,-0.007480018,1.7840765e-08,8.028467e-09,0.0,0.0024660248,-0.00225685,-0.0023397082,-0.0024676402,4.460191e-06,2.0071166e-06,0.00063274056,0.06712523,0.017149057,-0.009504146,0.020973599,0.0094179,487.9868,0.10043117,0.012110666,0.29442522,0.036086444,0.071842566,inf,inf,inf,inf,0,1,0,1,1,1,1,1,2,0,1,1,0,0,1
1777320749925000,1777320749925000,1777320746705000,47.397742099999995,8.545594,0.0012551601,-0.0008953785,-0.00823181,1.7840765e-08,8.028467e-09,0.0,0.0053451736,-0.0029575098,-0.0049741054,-0.0041653854,4.460191e-06,2.0071166e-06,0.00063274056,-0.027856933,-0.0016068224,0.018291174,0.019766001,0.0094179,487.9868,0.10189098,0.014369377,0.29217902,0.03969958,0.073651426,inf,inf,inf,inf,0,1,0,1,1,1,1,1,2,0,1,1,0,0,1
1777320750429000,1777320750429000,1777320746705000,47.397742099999995,8.545594,0.0021922158,-0.002014143,-0.007779336,1.7840765e-08,8.028467e-09,0.0,0.0063932925,-0.0055087972,-0.0066291806,-0.0034586226,4.460191e-06,2.0071166e-06,0.00063274056,0.023900697,-0.008350849,-0.026875174,0.01816808,0.0094179,487.9868,0.102022015,0.011129392,0.28788182,0.034277108,0.07089996,inf,inf,inf,inf,0,1,0,1,1,1,1,1,2,0,1,1,0,0,1
1777320750925000,1777320750925000,1777320746705000,47.397742099999995,8.545594,0.0017414889,-0.00066392915,-0.0072979997,1.7840765e-08,8.028467e-09,0.0,0.005256481,-0.0006476154,-0.000886211,0.0021562413,4.460191e-06,2.0071166e-06,0.00063274056,0.029326655,-0.0031779744,-0.007585622,0.0181608,0.0094179,487.9868,0.09972007,0.013195987,0.28725412,0.037938014,0.072752565,inf,inf,inf,inf,0,1,0,1,1,1,1,1,2,0,1,1,0,0,1
1777320751429000,1777320751429000,1777320746705000,47.397742099999995,8.545594,-0.0028151067,0.0067415754,-0.034348976,-0.001151283,0.0074112597,-0.02802166,-0.0013966392,-0.00022049146,-0.0011420313,0.0018966058,-0.0035410686,-0.002140997,0.0016744286,0.041077077,-0.048014272,-0.023331491,0.019028455,0.0094179,487.9868,0.10001722,0.4195812,0.3696293,0.2124828,0.22507143,inf,inf,inf,inf,1,1,1,1,2,2,2,2,2,0,1,1,0,0,0
1777320751925000,1777320751925000,1777320746705000,47.397742099999995,8.545594,-0.015075056,0.0055290437,-0.030638058,-0.001151283,0.0074112597,-0.02802166,-0.004187375,0.00037899063,-0.00047845265,0.0048575522,-0.0035410686,-0.002140997,0.0016744286,-0.0483617,-0.0050757187,0.029806977,0.017386286,0.0094179,487.9868,0.102585614,0.21585667,0.20107856,0.11571349,0.120655864,inf,inf,inf,inf,1,1,1,1,2,2,2,2,2,0,1,1,0,0,0
1777320752429000,1777320752429000,1777320746705000,47.397742099999995,8.545594,-0.015800497,0.00030970149,-0.024259137,-0.001151283,0.0074112597,-0.02802166,-0.0016631157,-0.0003112078,0.000783043,0.009420285,-0.0035410686,-0.002140997,0.0016744286,-0.0010528001,0.00902398,-0.008522532,0.017424563,0.0094179,487.9868,0.10223729,0.16203064,0.15974517,0.09317679,0.09327773,inf,inf,inf,inf,1,1,1,1,2,2,2,2,2,0,1,1,0,0,0
1777320752925000,1777320752925000,1777320746705000,47.397742099999995,8.545594,-0.01515014,0.00066943414,-0.01958536,-0.001151283,0.0074112597,-0.02802166,0.0033753698,-0.002301281,0.00086969126,0.0088606225,-0.0035410686,-0.002140997,0.0016744286,0.03472638,0.031440746,0.011856667,0.016412543,0.0094179,487.9868,0.09971747,0.14220372,0.14372937,0.087571405,0.08194964,inf,inf,inf,inf,1,1,1,1,2,2,2,2,2,0,1,1,0,0,0
1777320753429000,1777320753429000,1777320746705000,47.397742099999995,8.545594,-0.0131119555,0.001707425,-0.015431423,-0.001151283,0.0074112597,-0.02802166,0.007950633,-0.0043492247,0.0028737846,0.010507183,-0.0035410686,-0.002140997,0.0016744286,0.036202714,-0.024765316,-0.00030547378,0.016359948,0.0094179,487.9868,0.09927617,0.13034804,0.13318329,0.08611897,0.07494426,inf,inf,inf,inf,1,1,1,1,2,2,2,2,2,0,1,1,0,0,0
1777320753925000,1777320753925000,1777320746705000,47.397742099999995,8.545594,-0.01245714,0.0010449947,-0.013674776,-0.001151283,0.0074112597,-0.02802166,0.013305059,-0.0032254984,0.0029853722,0.0076814834,-0.0035410686,-0.002140997,0.0016744286,0.03119577,-0.035254322,0.015120952,0.016310036,0.0094179,487.9868,0.098022014,0.1265339,0.12914462,0.08861708,0.07240762,inf,inf,inf,inf,1,1,1,1,2,2,2,2,2,0,1,1,0,0,0
1777320754429000,1777320754429000,1777320746705000,47.397742099999995,8.545594,-0.013659354,0.0030796449,-0.011904889,-0.001151283,0.0074112597,-0.02802166,0.016860725,-0.0008680936,0.0036501773,0.006799265,-0.0035410686,-0.002140997,0.0016744286,0.03853895,-0.016308062,-0.0052452083,0.01778336,0.0094179,487.9868,0.0987434,0.12327056,0.12551604,0.08929694,0.07060991,inf,inf,inf,inf,1,1,1,1,2,2,2,2,2,0,1,1,0,0,0
1777320754925000,1777320754925000,1777320746705000,47.397742099999995,8.545594,-0.0123954015,0.0017974162,-0.011585476,-0.001151283,0.0074112597,-0.02802166,0.015216249,0.00088031875,0.0012025248,0.0026830959,-0.0035410686,-0.002140997,0.0016744286,-0.004818197,-0.050181158,-0.00782404,0.017401673,0.0094179,487.9868,0.098883025,0.12106912,0.12288869,0.088743426,0.06957704,inf,inf,inf,inf,1,1,1,1,2,2,2,2,2,0,1,1,0,0,0
1777320755429000,1777320755429000,1777320746705000,47.397742099999995,8.545594,-0.011454497,-0.00074566685,-0.011620226,-0.001151283,0.0074112597,-0.02802166,0.0120376,-0.0016993554,0.0027947763,0.0027750588,-0.0035410686,-0.002140997,0.0016744286,-0.045323204,-0.03901437,0.004181638,0.016642185,0.0094179,487.9868,0.098678,0.12272217,0.12373763,0.090294495,0.070391975,inf,inf,inf,inf,1,1,1,1,2,2,2,2,2,0,1,1,0,0,0
1777320755925000,1777320755925000,1777320746705000,47.397742099999995,8.545594,-0.01464922,-0.002267742,-0.011382926,-0.001151283,0.0074112597,-0.02802166,0.0023378693,-0.0041643707,0.005065994,0.0037759137,-0.0035410686,-0.002140997,0.0016744286,0.010542515,0.0056770076,0.033955086,0.016223053,0.0094179,487.9868,0.09899153,0.12141829,0.12233909,0.08845616,0.0698979,inf,inf,inf,inf,1,1,1,1,2,2,2,2,2,0,1,1,0,0,0
1777320756429000,1777320756429000,1777320746705000,47.397742099999995,8.545594,-0.016023662,-0.0023780842,-0.009050933,-0.001151283,0.0074112597,-0.02802166,0.005105405,-0.0056822314,0.0020470514,0.002326098,-0.0035410686,-0.002140997,0.0016744286,-0.016461143,-0.021904148,0.030327586,0.015494877,0.0094179,487.9868,0.1001541,0.1234611,0.123915255,0.089201,0.07084233,inf,inf,inf,inf,1,1,1,1,2,2,2,2,2,0,1,1,0,0,0
1777320756925000,1777320756925000,1777320746705000,47.397742099999995,8.545594,-0.016553419,-0.002666047,-0.007661255,-0.001151283,0.0074112597,-0.02802166,0.0045890976,-0.0021272607,0.003243624,0.003057763,-0.0035410686,-0.002140997,0.0016744286,0.04297521,-0.003498262,-0.051473264,0.015873682,0.0094179,487.9868,0.09757108,0.12219644,0.12299254,0.087136395,0.07029948,inf,inf,inf,inf,1,1,1,1,2,2,2,2,2,0,1,1,0,0,0
1777320757429000,1777320757429000,1777320746705000,47.397742099999995,8.545594,-0.01670603,-0.0048664114,-0.010322649,-0.001151283,0.0074112597,-0.02802166,0.007267531,-0.0029148737,0.0004091077,-0.0022544176,-0.0035410686,-0.002140997,0.0016744286,0.001346223,0.030959737,-0.011886469,0.016061692,0.0094179,487.9868,0.0991095,0.12134935,0.12248836,0.0855175,0.06988874,inf,inf,inf,inf,1,1,1,1,2,2,2,2,2,0,1,1,0,0,0
1777320757925000,1777320757925000,1777320746705000,47.397742099999995,8.545594,-0.015964776,-0.0057758717,-0.012255706,-0.001151283,0.0074112597,-0.02802166,0.0012890825,-0.00049921253,0.0030699016,-0.00083879475,-0.0035410686,-0.002140997,0.0016744286,-0.0372115,0.029989561,-0.06349943,0.015388229,0.0094179,487.9868,0.098677784,0.122853436,0.12391031,0.08594899,0.07049921,inf,inf,inf,inf,1,1,1,1,2,2,2,2,2,0,1,1,0,0,0
1777320758429000,1777320758429000,1777320746705000,47.397742099999995,8.545594,-0.016453076,-0.0048962478,-0.013961922,-0.001151283,0.0074112597,-0.02802166,-0.002486714,0.0036456832,0.0014896361,-0.0023844494,-0.0035410686,-0.002140997,0.0016744286,-0.0018339851,-0.014903586,-0.029254703,0.01605568,0.0094179,487.9868,0.099858075,0.121906966,0.12333883,0.084566265,0.07000568,inf,inf,inf,inf,1,1,1,1,2,2,2,2,2,0,1,1,0,0,0
1777320758925000,1777320758925000,1777320746705000,47.397742099999995,8.545594,-0.019425891,-0.0018349913,-0.012497387,-0.001151283,0.0074112597,-0.02802166,-0.0069775204,0.007997982,0.001677662,-0.00058184325,-0.0035410686,-0.002140997,0.0016744286,-0.016433591,0.021782804,0.04987325,0.016847627,0.0094179,487.9868,0.09989553,0.12055193,0.12230384,0.083037786,0.06931017,inf,inf,inf,inf,1,1,1,1,2,2,2,2,2,0,1,1,0,0,0
1777320759429000,1777320759429000,1777320746705000,47.397742099999995,8.545594,-0.01823304,0.0041173375,-0.011981574,-0.001151283,0.0074112597,-0.02802166,-0.0035664972,0.010499957,0.0011780387,-0.000513126,-0.0035410686,-0.002140997,0.0016744286,-0.024576964,0.02414442,0.013840384,0.016774,0.0094179,487.9868,0.10014755,0.12241406,0.12404289,0.08415352,0.07013711,inf,inf,inf,inf,1,1,1,1,2,2,2,2,2,0,1,1,0,0,0
1777320759925000,1777320759925000,1777320746705000,47.397742099999995,8.545594,-0.020276003,0.0063555758,-0.011548414,-0.001151283,0.0074112597,-0.02802166,-0.004825615,0.014212754,-0.0007561345,-0.0009956552,-0.0035410686,-0.002140997,0.0016744286,-0.0093289055,0.01248463,-0.013607553,0.016580017,0.0094179,487.9868,0.10192717,0.12104197,0.12301954,0.08282064,0.06948316,inf,inf,inf,inf,1,1,1,1,2,2,2,2,2,0,1,1,0,0,0
1777320760429000,1777320760429000,1777320746705000,47.397742099999995,8.545594,-0.021464746,0.006275663,-0.011086975,-0.001151283,0.0074112597,-0.02802166,0.0022937646,0.011267918,-0.0010872196,-0.00077831786,-0.0035410686,-0.002140997,0.0016744286,-0.025048004,-0.017160395,-0.03054831,0.017027065,0.0094179,487.9868,0.10176255,0.122868456,0.1247484,0.0840024,0.07031749,inf,inf,inf,inf,1,1,1,1,2,2,2,2,2,0,1,1,0,0,0
1777320760925000,1777320760925000,1777320746705000,47.397742099999995,8.545594,-0.018080447,0.0019196717,-0.014621404,-0.001151283,0.0074112597,-0.02802166,0.0153076025,-0.010709177,-0.051701266,-0.05095784,-0.0035410686,-0.002140997,0.0016744286,0.025611786,-0.14703059,-0.43727455,0.016409604,0.0094179,487.9868,0.10529698,0.12152121,0.12359268,0.08287683,0.0696788,inf,inf,inf,inf,1,1,1,1,2,2,2,2,2,0,1,1,0,0,0
1777320761429000,1777320761429000,1777320746705000,47.397742099999995,8.545594,-0.0115519725,-0.023930391,-0.123179965,-0.001151283,0.0074112597,-0.02802166,0.023437273,-0.06212239,-0.48485374,-0.47019085,-0.0035410686,-0.002140997,0.0016744286,-0.045799598,0.008768227,-0.9038811,0.016741587,0.0094179,487.9868,0.21385553,0.12063704,0.12282979,0.08337113,0.0692546,inf,inf,inf,inf,1,1,1,1,2,2,2,2,2,0,1,1,0,0,0
1777320761925000,1777320761925000,1777320746705000,47.397742099999995,8.545594,-0.008650463,-0.055513006,-0.42418316,-0.001151283,0.0074112597,-0.02802166,0.014833179,-0.043297514,-0.8656575,-0.8299573,-0.0035410686,-0.002140997,0.0016744286,-0.03755186,0.08921857,-0.78910494,0.016673371,0.0094179,487.9868,0.5148587,0.12214793,0.12431851,0.085382804,0.069976725,inf,inf,inf,inf,1,1,1,1,2,2,2,2,2,0,1,1,0,0,0
1777320762429000,1777320762429000,1777320746705000,47.397742099999995,8.545594,-0.009275066,-0.08055334,-0.9164434,-0.001151283,0.0074112597,-0.02802166,0.009327319,0.0011596967,-1.2016453,-1.1601124,-0.0035410686,-0.002140997,0.0016744286,-0.011370928,0.122590475,-0.6827125,0.017162414,0.0094179,487.9868,1.0071189,0.121361196,0.12362571,0.084842645,0.06958231,inf,inf,inf,inf,1,1,1,1,2,2,2,2,2,0,1,1,0,0,0
1777320762925000,1777320762925000,1777320746705000,47.397742099999995,8.545594,-0.015546271,-0.08682984,-1.5413684,-0.001151283,0.0074112597,-0.02802166,0.0027594229,0.034258723,-1.3327544,-1.297293,-0.0035410686,-0.002140997,0.0016744286,0.01740752,0.07253921,-0.06787199,0.017955305,0.0094179,487.9868,1.632044,0.122908145,0.1249314,0.085094474,0.07027148,inf,inf,inf,inf,1,1,1,1,2,2,2,2,2,0,1,1,0,0,0
1777320763429000,1777320763429000,1777320746705000,47.397742099999995,8.545594,-0.026291909,-0.081140175,-2.2380595,-0.001151283,0.0074112597,-0.02802166,0.003923773,0.053266015,-1.3840706,-1.3732599,-0.0035410686,-0.002140997,0.0016744286,0.04182759,0.065354325,-0.0423789,0.027467797,0.008934343,487.9868,2.328735,0.12177375,0.124219604,0.113301836,0.06988255,inf,inf,inf,inf,1,1,1,1,2,2,2,2,3,0,1,1,0,0,0
1777320763925000,1777320763925000,1777320746705000,47.397742099999995,8.545594,-0.037812393,-0.06755549,-2.9567075,-0.001151283,0.0074112597,-0.02802166,-0.00012387137,0.052236695,-1.4203553,-1.43039,-0.0035410686,-0.002140997,0.0016744286,0.06641187,0.022208216,0.036821697,0.027201843,0.008934343,487.9868,3.047383,0.12081175,0.12300789,0.13943534,0.06927074,inf,inf,inf,inf,1,1,1,1,2,2,2,2,3,0,1,1,0,0,0
1777320764429000,1777320764429000,1777320746705000,47.397742099999995,8.545594,-0.049036663,-0.04631074,-3.7021902,-0.001151283,0.0074112597,-0.02802166,0.008252722,0.05152389,-1.443421,-1.4662997,-0.0035410686,-0.002140997,0.0016744286,0.07626365,-0.012071951,-0.03912579,0.02400073,0.008934343,487.9868,3.7928658,0.12402639,0.124673374,0.13651796,0.07015046,inf,inf,inf,inf,1,1,1,1,2,2,2,2,3,1,1,1,0,0,0
1777320764925000,1777320764925000,1777320746705000,47.397742099999995,8.545594,-0.051299002,-0.01606857,-4.447209,-0.001151283,0.0074112597,-0.02802166,0.017146945,0.05299798,-1.4648554,-1.4947566,-0.0035410686,-0.002140997,0.0016744286,0.015834378,-0.037928425,0.0634985,0.023814617,0.008934343,487.9868,4.537884,0.12307977,0.12347527,0.12050366,0.06954479,inf,inf,inf,inf,1,1,1,1,2,2,2,2,3,1,1,1,0,0,0
1777320765429000,1777320765429000,1777320746705000,47.397742099999995,8.545594,-0.043378897,0.014035001,-5.210998,-0.001151283,0.0074112597,-0.02802166,0.028936338,0.029970517,-1.4798824,-1.5119765,-0.0035410686,-0.002140997,0.0016744286,0.0068300446,-0.09241392,0.0053644176,0.025357282,0.008934343,487.9868,5.3016734,0.122378886,0.12274096,0.108303934,0.06914875,inf,inf,inf,inf,1,1,1,1,2,2,2,2,3,1,1,1,0,0,0
1777320765925000,1777320765925000,1777320746705000,47.397742099999995,8.545594,-0.023391958,0.03205242,-5.9639573,-0.001151283,0.0074112597,-0.02802166,0.029430272,0.0058449344,-1.4861567,-1.5169516,-0.0035410686,-0.002140997,0.0016744286,0.0032329005,-0.037597626,0.081390135,0.026032493,0.008934343,487.9868,6.0546327,0.12423131,0.123929806,0.10215081,0.06981677,inf,inf,inf,inf,1,1,1,1,2,2,2,2,3,1,1,1,0,0,0
1777320766429000,1777320766429000,1777320746705000,47.397742099999995,8.545594,-0.0013057785,0.035769064,-6.7286954,-0.001151283,0.0074112597,-0.02802166,0.018819567,-0.019204762,-1.4950304,-1.5227001,-0.0035410686,-0.002140997,0.0016744286,-0.04112219,-0.11368149,-0.024969688,0.026057787,0.008934343,487.9868,6.8193707,0.123127475,0.12329651,0.09468412,0.069448195,inf,inf,inf,inf,1,1,1,1,2,2,2,2,3,1,1,1,0,0,0
1777320766925000,1777320766925000,1777320746705000,47.397742099999995,8.545594,0.010908538,0.0327582,-7.4797606,-0.001151283,0.0074112597,-0.02802166,-0.0016257111,-0.02881104,-1.5001562,-1.5227308,-0.0035410686,-0.002140997,0.0016744286,-0.054779097,0.016549507,0.11334288,0.026270764,0.008934343,487.9868,7.570436,0.124594405,0.12458963,0.09145902,0.07014947,inf,inf,inf,inf,1,1,1,1,2,2,2,2,3,1,1,1,0,0,0
1777320767429000,1777320767429000,1777320746705000,47.397742099999995,8.545594,0.008677155,0.021591403,-8.197795,-0.001151283,0.0074112597,-0.02802166,-0.015501091,-0.03282191,-1.2765087,-1.30149,-0.0035410686,-0.002140997,0.0016744286,-0.047595724,-0.038845744,0.5209548,0.0254013,0.008934343,487.9868,8.28847,0.12331801,0.12388413,0.08687392,0.06976927,inf,inf,inf,inf,1,1,1,1,2,2,2,2,3,1,1,1,0,0,0
1777320767925000,1777320767925000,1777320746705000,47.397742099999995,8.545594,-0.0010679349,0.007368429,-8.795813,-0.001151283,0.0074112597,-0.02802166,-0.020061467,-0.027620772,-1.0370213,-1.0703809,-0.0035410686,-0.002140997,0.0016744286,-0.0064209783,0.01885529,0.58734787,0.02584502,0.008934343,487.9868,8.886488,0.121596545,0.12277327,0.08323244,0.06916037,inf,inf,inf,inf,1,1,1,1,2,2,2,2,3,1,1,1,0,0,0
1777320768429000,1777320768429000,1777320746705000,47.397742099999995,8.545594,-0.015627624,-0.0064448835,-9.275496,-0.001151283,0.0074112597,-0.02802166,-0.017180253,-0.019846024,-0.7877,-0.82151324,-0.0035410686,-0.002140997,0.0016744286,0.058776762,0.05218499,0.5123876,0.025502704,0.008934343,487.9868,9.366171,0.12312009,0.124507114,0.082994446,0.07004364,inf,inf,inf,inf,1,1,1,1,2,2,2,2,3,1,1,1,0,0,0
1777320768925000,1777320768925000,1777320746705000,47.397742099999995,8.545594,-0.03449993,-0.019390283,-9.539285,-0.001151283,0.0074112597,-0.02802166,-0.015507231,-0.013028481,-0.06917616,-0.10659041,-0.0035410686,-0.002140997,0.0016744286,0.07055634,0.060345277,1.6011482,0.02615858,0.008934343,487.9868,9.62996,0.121468805,0.12330674,0.080917194,0.06943495,inf,inf,inf,inf,1,1,1,1,2,2,2,2,3,1,1,1,0,0,0
1777320769429000,1777320769429000,1777320746705000,47.397742099999995,8.545594,-0.05371889,-0.028079784,-9.50422,-0.001151283,0.0074112597,-0.02802166,-0.0038476672,-0.0006702713,0.2150512,0.16036242,-0.0035410686,-0.002140997,0.0016744286,0.033469256,0.058116276,-0.24820396,0.025601195,0.008934343,487.9868,9.594895,0.1230013,0.124947794,0.08176448,0.07031866,inf,inf,inf,inf,1,1,1,1,2,2,2,2,3,1,1,1,0,0,0
1777320769925000,1777320769925000,1777320746705000,47.397742099999995,8.545594,-0.068075694,-0.030926684,-9.408406,-0.001151283,0.0074112597,-0.02802166,0.012561827,0.0086745005,0.161839,0.13538152,-0.0035410686,-0.002140997,0.0016744286,0.028678855,0.06738515,-0.13249832,0.024836035,0.008934343,487.9868,9.499082,0.12148153,0.12382653,0.0810178,0.06972517,inf,inf,inf,inf,1,1,1,1,2,2,2,2,3,1,1,1,0,0,0
1777320770429000,1777320770429000,1777320746705000,47.397742099999995,8.545594,-0.07194378,-0.030421205,-9.312375,-0.001151283,0.0074112597,-0.02802166,0.025796413,0.009941812,0.087097846,0.09547933,-0.0035410686,-0.002140997,0.0016744286,0.017559832,-0.071047194,-0.19772163,0.022978242,0.008934343,487.9868,9.40305,0.12049533,0.123103075,0.08108171,0.069338,inf,inf,inf,inf,1,1,1,1,2,2,2,2,3,1,1,1,0,0,0
1777320770925000,1777320770925000,1777320746705000,47.397742099999995,8.545594,-0.011054719,-0.039006464,-9.25181,-0.001151283,0.0074112597,-0.02802166,0.45901388,-0.007362855,0.0027094213,0.034884296,-0.0035410686,-0.002140997,0.0016744286,1.9351332,0.0060997806,-0.16322824,-0.030891899,0.008934343,487.9868,9.342485,0.12183617,0.12448821,0.08341407,0.070018455,inf,inf,inf,inf,1,1,1,1,2,2,2,2,3,1,1,1,0,0,0
1777320771429000,1777320771429000,1777320746705000,47.397742099999995,8.545594,0.44293678,-0.04946377,-9.224546,-0.001151283,0.0074112597,-0.02802166,1.7902713,-0.015819447,-0.026697503,0.01854101,-0.0035410686,-0.002140997,0.0016744286,3.1883266,-0.09764733,-0.014678574,-0.031467177,0.008934343,487.9868,9.315222,0.12104654,0.12377643,0.09087673,0.06950908,inf,inf,inf,inf,1,1,1,1,2,2,2,2,3,1,1,1,0,0,0
1777320771925000,1777320771925000,1777320746705000,47.397742099999995,8.545594,1.5530477,-0.084078446,-9.207923,-0.001151283,0.0074112597,-0.02802166,3.23088,-0.06406648,-0.034144606,0.014344895,-0.0035410686,-0.002140997,0.0016744286,3.0919554,-0.008125072,-0.012164003,-0.017821785,0.008934343,487.9868,9.298598,0.1200559,0.12262741,0.09783193,0.068918206,inf,inf,inf,inf,1,1,1,1,2,2,2,2,3,1,1,1,0,0,0
1777320772429000,1777320772429000,1777320746705000,47.397742099999995,8.545594,3.4231207,-0.14982475,-9.201045,-0.001151283,0.0074112597,-0.02802166,4.5755496,-0.08539325,-0.03469628,0.012301621,-0.0035410686,-0.002140997,0.0016744286,2.2413142,0.097802885,-0.066321336,-0.017309863,0.008934343,487.9868,9.29172,0.12244609,0.12420737,0.099914394,0.06987961,inf,inf,inf,inf,1,1,1,1,2,2,2,2,3,1,1,1,0,0,0
1777320772925000,1777320772925000,1777320746705000,47.397742099999995,8.545594,5.855861,-0.21828023,-9.1978855,-0.001151283,0.0074112597,-0.02802166,5.1894255,-0.056333,-0.04205418,0.001580772,-0.0035410686,-0.002140997,0.0016744286,0.20324728,0.19983032,-0.025216488,-0.017001698,0.008934343,487.9868,9.288561,0.12139995,0.1231584,0.09055311,0.06934781,inf,inf,inf,inf,1,1,1,1,2,2,2,2,3,1,1,1,0,0,0
1777320773429000,1777320773429000,1777320746705000,47.397742099999995,8.545594,8.522514,-0.25472334,-9.205803,-0.001151283,0.0074112597,-0.02802166,4.8533773,-0.0033228314,-0.063961215,-0.02449045,-0.0035410686,-0.002140997,0.0016744286,-1.9192634,0.11124116,-0.06381515,-0.01645584,0.008934343,487.9868,9.296478,0.12327722,0.124666624,0.084903575,0.070008375,inf,inf,inf,inf,1,1,1,1,2,2,2,2,3,1,1,1,0,0,0
1777320773925000,1777320773925000,1777320746705000,47.397742099999995,8.545594,10.850572,-0.2609777,-9.224185,-0.001151283,0.0074112597,-0.02802166,3.538068,0.034504775,-0.056724567,-0.021436678,-0.0035410686,-0.002140997,0.0016744286,-3.8238204,0.075980656,0.1858156,-0.018100435,0.008934343,487.9868,9.31486,0.12159987,0.12355878,0.090907365,0.06909722,inf,inf,inf,inf,1,1,1,1,2,2,2,2,3,1,1,1,0,0,0
1777320774429000,1777320774429000,1777320746705000,47.397742099999995,8.545594,12.463572,-0.25490725,-9.228527,-0.001151283,0.0074112597,-0.02802166,1.7554941,0.04760464,-0.008899946,0.020604499,-0.0035410686,-0.002140997,0.0016744286,-4.119712,0.07658928,0.08966307,-0.016466253,0.008934343,487.9868,9.319202,0.12052315,0.12274342,0.10296493,0.068522066,inf,inf,inf,inf,1,1,1,1,2,2,2,2,3,1,1,1,0,0,0
1777320774925000,1777320774925000,1777320746705000,47.397742099999995,8.545594,13.1080065,-0.24951199,-9.219131,-0.001151283,0.0074112597,-0.02802166,-0.10065246,0.039059807,0.016891487,0.040998418,-0.0035410686,-0.002140997,0.0016744286,-4.0327687,-0.031072225,0.03895722,-0.015121563,0.008934343,487.9868,9.309807,0.12230389,0.12388815,0.10674191,0.069343835,inf,inf,inf,inf,1,1,1,1,2,2,2,2,3,1,1,1,0,0,0
1777320775429000,1777320775429000,1777320746705000,47.397742099999995,8.545594,12.7536125,-0.24865362,-9.2005205,-0.001151283,0.0074112597,-0.02802166,-1.7872294,0.033245753,0.04190111,0.05999245,-0.0035410686,-0.002140997,0.0016744286,-2.7775471,-0.04778621,-0.020181758,-0.015359326,0.008934343,487.9868,9.291196,0.121732324,0.12319488,0.09987694,0.069295175,inf,inf,inf,inf,1,1,1,1,2,2,2,2,3,1,1,1,0,0,0
1777320775925000,1777320775925000,1777320746705000,47.397742099999995,8.545594,11.618664,-0.24100232,-9.180105,-0.001151283,0.0074112597,-0.02802166,-2.7705631,0.036097895,0.0051855496,0.022830369,-0.0035410686,-0.002140997,0.0016744286,-1.4328154,0.008567195,-0.06470642,-0.016507067,0.008934343,487.9868,9.270781,0.12347545,0.124518365,0.09320811,0.070163175,inf,inf,inf,inf,1,1,1,1,2,2,2,2,3,1,1,1,0,0,0
1777320776429000,1777320776429000,1777320746705000,47.397742099999995,8.545594,9.921817,-0.22581162,-9.169994,-0.001151283,0.0074112597,-0.02802166,-3.5632339,0.043167837,-0.020099975,0.0012160854,-0.0035410686,-0.002140997,0.0016744286,-1.5053,-0.013914559,0.007074326,-0.017115887,0.008934343,487.9868,9.26067,0.122543275,0.12378746,0.0868471,0.06983905,inf,inf,inf,inf,1,1,1,1,2,2,2,2,3,1,1,1,0,0,0
1777320776925000,1777320776925000,1777320746705000,47.397742099999995,8.545594,7.8071666,-0.20347132,-9.164708,-0.001151283,0.0074112597,-0.02802166,-4.3615484,0.047526255,-0.021113819,0.002760606,-0.0035410686,-0.002140997,0.0016744286,-0.8741352,0.044104632,-0.025847925,-0.016501151,0.008934343,487.9868,9.2553835,0.121078536,0.12274642,0.08339438,0.069306426,inf,inf,inf,inf,1,1,1,1,2,2,2,2,3,1,1,1,0,0,0
1777320777429000,1777320777429000,1777320746705000,47.397742099999995,8.545594,5.391442,-0.17532188,-9.164072,-0.001151283,0.0074112597,-0.02802166,-4.491607,0.07361693,-0.038401343,-0.012394236,-0.0035410686,-0.002140997,0.0016744286,0.66431105,0.060699183,-0.022642313,-0.017596,0.008934343,487.9868,9.254747,0.12274188,0.12436566,0.08404378,0.070114024,inf,inf,inf,inf,1,1,1,1,2,2,2,2,3,1,1,1,0,0,0
1777320777925000,1777320777925000,1777320746705000,47.397742099999995,8.545594,2.9748783,-0.13953897,-9.170272,-0.001151283,0.0074112597,-0.02802166,-4.592744,0.082272366,-0.039191842,-0.013858158,-0.0035410686,-0.002140997,0.0016744286,-0.06492789,0.02441026,0.0063693146,-0.016681975,0.008934343,487.9868,9.260947,0.12120549,0.12331283,0.0843695,0.0694886,inf,inf,inf,inf,1,1,1,1,2,2,2,2,3,1,1,1,0,0,0
1777320778429000,1777320778429000,1777320746705000,47.397742099999995,8.545594,0.5629548,-0.09976137,-9.184662,-0.001151283,0.0074112597,-0.02802166,-4.236096,0.07857072,-0.046448063,-0.026518589,-0.0035410686,-0.002140997,0.0016744286,1.839895,0.003851959,-0.03861822,-0.017815394,0.008934343,487.9868,9.275337,0.120223194,0.12262052,0.0861401,0.06905198,inf,inf,inf,inf,1,1,1,1,2,2,2,2,3,1,1,1,0,0,0
1777320778925000,1777320778925000,1777320746705000,47.397742099999995,8.545594,-1.4573174,-0.0628096,-9.197345,-0.001151283,0.0074112597,-0.02802166,-3.2318897,0.07268612,-0.013659039,0.0020594308,-0.0035410686,-0.002140997,0.0016744286,2.2336633,-0.026308876,0.042862255,-0.017038995,0.008934343,487.9868,9.28802,0.12170206,0.12386211,0.092411675,0.069548704,inf,inf,inf,inf,1,1,1,1,2,2,2,2,3,1,1,1,0,0,0
1777320779429000,1777320779429000,1777320746705000,47.397742099999995,8.545594,-3.003004,-0.029726496,-9.199329,-0.001151283,0.0074112597,-0.02802166,-2.3271248,0.056621227,-0.00045187285,0.010341444,-0.0035410686,-0.002140997,0.0016744286,1.814705,-8.489314e-05,0.008945352,-0.017220506,0.008934343,487.9868,9.290005,0.12104261,0.12318275,0.092566244,0.06918196,inf,inf,inf,inf,1,1,1,1,2,2,2,2,3,1,1,1,0,0,0
1777320779925000,1777320779925000,1777320746705000,47.397742099999995,8.545594,-4.044564,-0.0042968495,-9.203229,-0.001151283,0.0074112597,-0.02802166,-1.5523132,0.03817501,-0.01046106,-0.0060906545,-0.0035410686,-0.002140997,0.0016744286,1.9969804,-0.08978839,-0.04056189,-0.017271215,0.008934343,487.9868,9.293904,0.12276485,0.12433493,0.09183546,0.069918536,inf,inf,inf,inf,1,1,1,1,2,2,2,2,3,1,1,1,0,0,0
1777320780429000,1777320780429000,1777320746705000,47.397742099999995,8.545594,-4.5392265,0.014581706,-9.210668,-0.001151283,0.0074112597,-0.02802166,-0.21613549,0.016816426,-0.00049539824,0.0023416295,-0.0035410686,-0.002140997,0.0016744286,2.9803872,-0.050376456,0.049353573,-0.0179162,0.008934343,487.9868,9.301343,0.12205125,0.123713635,0.090710975,0.069628336,inf,inf,inf,inf,1,1,1,1,2,2,2,2,3,1,1,1,0,0,0
1777320780925000,1777320780925000,1777320746705000,47.397742099999995,8.545594,-4.3202753,0.019432232,-9.204892,-0.001151283,0.0074112597,-0.02802166,1.2056473,-0.024090784,0.015551896,0.019166304,-0.0035410686,-0.002140997,0.0016744286,2.7511325,-0.12097434,-0.0035427508,-0.017148582,0.008934343,487.9868,9.2955675,0.120844975,0.12256356,0.088866934,0.06910721,inf,inf,inf,inf,1,1,1,1,2,2,2,2,3,1,1,1,0,0,0
1777320781429000,1777320781429000,1777320746705000,47.397742099999995,8.545594,-3.3801262,0.007872786,-9.190028,-0.001151283,0.0074112597,-0.02802166,2.4946966,-0.05864577,0.0064089815,0.015186729,-0.0035410686,-0.002140997,0.0016744286,2.3363605,-0.07650823,-0.031870786,-0.016988315,0.008934343,487.9868,9.280704,0.12287097,0.12427577,0.08853466,0.0700958,inf,inf,inf,inf,1,1,1,1,2,2,2,2,3,1,1,1,0,0,0
1777320781925000,1777320781925000,1777320746705000,47.397742099999995,8.545594,-1.7926948,-0.026781041,-9.180018,-0.001151283,0.0074112597,-0.02802166,3.7034678,-0.098534994,-0.007818826,0.006861366,-0.0035410686,-0.002140997,0.0016744286,2.278144,-0.022529453,0.072229646,-0.017659975,0.008934343,487.9868,9.270694,0.1214955,0.1231968,0.08529733,0.069556795,inf,inf,inf,inf,1,1,1,1,2,2,2,2,3,1,1,1,0,0,0
1777320782429000,1777320782429000,1777320746705000,47.397742099999995,8.545594,0.3847624,-0.07962755,-9.1654415,-0.001151283,0.0074112597,-0.02802166,4.4375787,-0.11641931,-0.011833078,0.009144695,-0.0035410686,-0.002140997,0.0016744286,0.3747077,0.021645507,-0.087235115,-0.01769033,0.008934343,487.9868,9.256117,0.12055324,0.12244551,0.08222792,0.06916077,inf,inf,inf,inf,1,1,1,1,2,2,2,2,3,1,1,1,0,0,0
1777320782925000,1777320782925000,1777320746705000,47.397742099999995,8.545594,2.7352026,-0.1359474,-9.16057,-0.001151283,0.0074112597,-0.02802166,4.224625,-0.09713485,-0.051710404,-0.024347464,-0.0035410686,-0.002140997,0.0016744286,-1.8406088,0.038274344,-0.05086418,-0.016877992,0.008934343,487.9868,9.2512455,0.12180992,0.123829484,0.082144216,0.06968838,inf,inf,inf,inf,1,1,1,1,2,2,2,2,3,1,1,1,0,0,0
1777320783429000,1777320783429000,1777320746705000,47.397742099999995,8.545594,4.8307934,-0.18837728,-9.167657,-0.001151283,0.0074112597,-0.02802166,2.9322345,-0.07093633,-0.06349493,-0.028450489,-0.0035410686,-0.002140997,0.0016744286,-3.8763998,0.084201775,0.11996086,-0.017104233,0.008934343,487.9868,9.258332,0.12064345,0.12306835,0.08649067,0.06883109,inf,inf,inf,inf,1,1,1,1,2,2,2,2,3,1,1,1,0,0,0
1777320783925000,1777320783925000,1777320746705000,47.397742099999995,8.545594,6.13608,-0.22518645,-9.165796,-0.001151283,0.0074112597,-0.02802166,1.1412153,-0.029030181,-0.028672263,0.009719126,-0.0035410686,-0.002140997,0.0016744286,-4.1968956,0.11553051,0.014669261,-0.01619827,0.008934343,487.9868,9.256472,0.121892065,0.124193676,0.09594965,0.06917979,inf,inf,inf,inf,1,1,1,1,2,2,2,2,3,1,1,1,0,0,0
1777320784429000,1777320784429000,1777320746705000,47.397742099999995,8.545594,6.487296,-0.24028242,-9.15462,-0.001151283,0.0074112597,-0.02802166,-0.74915886,0.019683873,-0.00873857,0.030316925,-0.0035410686,-0.002140997,0.0016744286,-3.9967048,0.10547689,0.051530074,-0.016447728,0.008934343,487.9868,9.245296,0.12126807,0.12334957,0.09760968,0.06893416,inf,inf,inf,inf,1,1,1,1,2,2,2,2,3,1,1,1,0,0,0
1777320784925000,1777320784925000,1777320746705000,47.397742099999995,8.545594,5.8719263,-0.2311532,-9.144341,-0.001151283,0.0074112597,-0.02802166,-2.1872516,0.063168116,-0.00080657774,0.02961417,-0.0035410686,-0.002140997,0.0016744286,-2.1824872,0.07595319,-0.011280178,-0.017400596,0.008934343,487.9868,9.235017,0.12027464,0.12215954,0.09289461,0.068671696,inf,inf,inf,inf,1,1,1,1,2,2,2,2,3,1,1,1,0,0,0
1777320785429000,1777320785429000,1777320746705000,47.397742099999995,8.545594,4.5505066,-0.20273718,-9.144086,-0.001151283,0.0074112597,-0.02802166,-3.0004578,0.09272201,-0.0245153,-0.001046248,-0.0035410686,-0.002140997,0.0016744286,-1.3576285,0.04877772,-0.057190653,-0.016635789,0.008934343,487.9868,9.234761,0.122442216,0.123756945,0.08888232,0.069747254,inf,inf,inf,inf,1,1,1,1,2,2,2,2,3,1,1,1,0,0,0
1777320785925000,1777320785925000,1777320746705000,47.397742099999995,8.545594,2.7746599,-0.15548499,-9.147608,-0.001151283,0.0074112597,-0.02802166,-3.7671413,0.12253849,-0.026793705,-0.0053598564,-0.0035410686,-0.002140997,0.0016744286,-1.5387658,0.124875434,0.013777985,-0.01604834,0.008934343,487.9868,9.238283,0.12111561,0.12275569,0.08403046,0.06927079,inf,inf,inf,inf,1,1,1,1,2,2,2,2,3,1,1,1,0,0,0
1777320786429000,1777320786429000,1777320746705000,47.397742099999995,8.545594,0.5449975,-0.09116478,-9.143958,-0.001151283,0.0074112597,-0.02802166,-4.4727883,0.123390324,-0.01282823,0.00889565,-0.0035410686,-0.002140997,0.0016744286,-0.58763987,-0.015590102,-0.010020099,-0.016246611,0.008934343,487.9868,9.234633,0.12290954,0.12441069,0.08350302,0.070220545,inf,inf,inf,inf,1,1,1,1,2,2,2,2,3,1,1,1,0,0,0
1777320786925000,1777320786925000,1777320746705000,47.397742099999995,8.545594,-1.8557005,-0.02402706,-9.142137,-0.001151283,0.0074112597,-0.02802166,-4.441897,0.10958055,-0.030831154,-0.008484779,-0.0035410686,-0.002140997,0.0016744286,1.2200453,-0.04820412,-0.055848617,-0.017441822,0.008934343,487.9868,9.232812,0.12144865,0.12350842,0.08133297,0.06961565,inf,inf,inf,inf,1,1,1,1,2,2,2,2,3,1,1,1,0,0,0
1777320787429000,1777320787429000,1777320746705000,47.397742099999995,8.545594,-4.1202016,0.03611563,-9.148702,-0.001151283,0.0074112597,-0.02802166,-3.5183132,0.08598194,-0.057233486,-0.03164753,-0.0035410686,-0.002140997,0.0016744286,3.1900759,-0.07200237,-0.033911314,-0.01730211,0.008934343,487.9868,9.239377,0.12035195,0.12279896,0.08236278,0.06893713,inf,inf,inf,inf,1,1,1,1,2,2,2,2,3,1,1,1,0,0,0
1777320787925000,1777320787925000,1777320746705000,47.397742099999995,8.545594,-5.7428365,0.078303516,-9.156078,-0.001151283,0.0074112597,-0.02802166,-1.9214956,0.049007893,-0.022146257,0.0031387145,-0.0035410686,-0.002140997,0.0016744286,3.7893462,-0.0822488,0.09518116,-0.017461661,0.008934343,487.9868,9.246754,0.12155293,0.124001935,0.088872686,0.06928968,inf,inf,inf,inf,1,1,1,1,2,2,2,2,3,1,1,1,0,0,0
1777320788429000,1777320788429000,1777320746705000,47.397742099999995,8.545594,-6.5303197,0.09970406,-9.1547575,-0.001151283,0.0074112597,-0.02802166,-0.1965097,0.0065342933,-0.0037819934,0.017323017,-0.0035410686,-0.002140997,0.0016744286,3.708732,-0.13728747,-0.018231569,-0.017996699,0.008934343,487.9868,9.245433,0.12078382,0.12313093,0.091903746,0.06890037,inf,inf,inf,inf,1,1,1,1,2,2,2,2,3,1,1,1,0,0,0
1777320788925000,1777320788925000,1777320746705000,47.397742099999995,8.545594,-6.3796525,0.10128521,-9.150648,-0.001151283,0.0074112597,-0.02802166,1.4515193,-0.030981468,0.022133926,0.036282253,-0.0035410686,-0.002140997,0.0016744286,3.0691435,-0.04259995,0.014536082,-0.017458765,0.008934343,487.9868,9.241323,0.12252022,0.12426265,0.093485564,0.06975906,inf,inf,inf,inf,1,1,1,1,2,2,2,2,3,1,1,1,0,0,0
1777320789429000,1777320789429000,1777320746705000,47.397742099999995,8.545594,-5.4077783,0.08478035,-9.143857,-0.001151283,0.0074112597,-0.02802166,2.5853086,-0.058998287,0.013243081,0.019323587,-0.0035410686,-0.002140997,0.0016744286,1.784001,-0.04353284,-0.09172409,-0.017429098,0.008934343,487.9868,9.234532,0.12192183,0.12359709,0.089263126,0.06963815,inf,inf,inf,inf,1,1,1,1,2,2,2,2,3,1,1,1,0,0,0
1777320789925000,1777320789925000,1777320746705000,47.397742099999995,8.545594,-3.8638241,0.054368984,-9.13953,-0.001151283,0.0074112597,-0.02802166,3.432296,-0.070050664,-0.0029227627,0.0028333548,-0.0035410686,-0.002140997,0.0016744286,1.6159266,-0.08416474,0.009705312,-0.0172352,0.008934343,487.9868,9.230206,0.120709546,0.122577965,0.08458443,0.069161505,inf,inf,inf,inf,1,1,1,1,2,2,2,2,3,1,1,1,0,0,0
1777320790429000,1777320790429000,1777320746705000,47.397742099999995,8.545594,-1.7923582,0.012852805,-9.132584,-0.001151283,0.0074112597,-0.02802166,4.3411307,-0.08977385,0.0006220123,0.01062817,-0.0035410686,-0.002140997,0.0016744286,1.2282693,-0.041545592,0.0029401851,-0.0178958,0.008934343,487.9868,9.223259,0.12261579,0.124366224,0.084067,0.070152216,inf,inf,inf,inf,1,1,1,1,2,2,2,2,3,1,1,1,0,0,0
1777320790925000,1777320790925000,1777320746705000,47.397742099999995,8.545594,0.5921502,-0.040164683,-9.125691,-0.001151283,0.0074112597,-0.02802166,4.6238294,-0.10755141,-0.014308238,-0.001588884,-0.0035410686,-0.002140997,0.0016744286,-0.47983482,-0.005571623,-0.1635449,-0.017899582,0.008934343,487.9868,9.216367,0.12125364,0.12340971,0.08140901,0.06957067,inf,inf,inf,inf,1,1,1,1,2,2,2,2,3,1,1,1,0,0,0
1777320791429000,1777320791429000,1777320746705000,47.397742099999995,8.545594,3.0018682,-0.095063314,-9.124433,-0.001151283,0.0074112597,-0.02802166,4.032128,-0.100380465,-0.04011218,-0.020817611,-0.0035410686,-0.002140997,0.0016744286,-2.5068226,0.03576734,-0.10792538,-0.017678209,0.008934343,487.9868,9.215108,0.120213576,0.12267876,0.080569424,0.06893539,inf,inf,inf,inf,1,1,1,1,2,2,2,2,3,1,1,1,0,0,0
1777320791925000,1777320791925000,1777320746705000,47.397742099999995,8.545594,4.9144754,-0.14664815,-9.13029,-0.001151283,0.0074112597,-0.02802166,2.5688748,-0.08108791,-0.031946912,-0.007990861,-0.0035410686,-0.002140997,0.0016744286,-3.7918682,0.11853966,0.09732693,-0.017461667,0.008934343,487.9868,9.220965,0.12139813,0.123890474,0.08499188,0.069249354,inf,inf,inf,inf,1,1,1,1,2,2,2,2,3,1,1,1,0,0,0
1777320792429000,1777320792429000,1777320746705000,47.397742099999995,8.545594,6.036436,-0.18158263,-9.126167,-0.001151283,0.0074112597,-0.02802166,0.8218887,-0.038295794,-0.01094464,0.0138033815,-0.0035410686,-0.002140997,0.0016744286,-3.9074316,0.059749376,0.04113372,-0.018231342,0.008934343,487.9868,9.216843,0.12047478,0.12307434,0.088643014,0.06875677,inf,inf,inf,inf,1,1,1,1,2,2,2,2,3,1,1,1,0,0,0
1777320792925000,1777320792925000,1777320746705000,47.397742099999995,8.545594,6.2103367,-0.18780303,-9.120437,-0.001151283,0.0074112597,-0.02802166,-0.9113031,0.022708176,0.0029584432,0.025325224,-0.0035410686,-0.002140997,0.0016744286,-3.5652246,0.14741641,0.08244998,-0.017534707,0.008934343,487.9868,9.211112,0.12205825,0.12430039,0.0917397,0.0696117,inf,inf,inf,inf,1,1,1,1,2,2,2,2,3,1,1,1,0,0,0
1777320793429000,1777320793429000,1777320746705000,47.397742099999995,8.545594,5.4938574,-0.16531342,-9.106785,-0.001151283,0.0074112597,-0.02802166,-2.2489161,0.06483309,0.003439156,0.023734292,-0.0035410686,-0.002140997,0.0016744286,-2.0299,0.0150409965,-0.05009677,-0.017489411,0.008934343,487.9868,9.19746,0.12140142,0.12343659,0.08910346,0.06945837,inf,inf,inf,inf,1,1,1,1,2,2,2,2,3,1,1,1,0,0,0
1777320793925000,1777320793925000,1777320746705000,47.397742099999995,8.545594,4.141189,-0.12118095,-9.104598,-0.001151283,0.0074112597,-0.02802166,-3.0804932,0.10151259,-0.021892957,-0.003841933,-0.0035410686,-0.002140997,0.0016744286,-1.442009,0.078747995,-0.063455656,-0.017729098,0.008934343,487.9868,9.195273,0.12032815,0.12248889,0.08473363,0.069073215,inf,inf,inf,inf,1,1,1,1,2,2,2,2,3,1,1,1,0,0,0
1777320794429000,1777320794429000,1777320746705000,47.397742099999995,8.545594,2.2649124,-0.058115855,-9.102753,-0.001151283,0.0074112597,-0.02802166,-3.952175,0.1341473,-0.023509145,-0.0019920184,-0.0035410686,-0.002140997,0.0016744286,-1.5517387,0.032625843,-0.012648291,-0.017417364,0.008934343,487.9868,9.193428,0.1222582,0.12409203,0.08397663,0.07001422,inf,inf,inf,inf,1,1,1,1,2,2,2,2,3,1,1,1,0,0,0
1777320794925000,1777320794925000,1777320746705000,47.397742099999995,8.545594,0.021649199,0.009075439,-9.099267,-0.001151283,0.0074112597,-0.02802166,-4.4415236,0.11217996,-0.022754671,-0.0003401824,-0.0035410686,-0.002140997,0.0016744286,0.1021584,-0.061094612,-0.10904669,-0.016854886,0.008934343,487.9868,9.189942,0.12090396,0.122991696,0.081405595,0.069428325,inf,inf,inf,inf,1,1,1,1,2,2,2,2,3,1,1,1,0,0,0
1777320795429000,1777320795429000,1777320746705000,47.397742099999995,8.545594,-2.3475592,0.07286965,-9.102351,-0.001151283,0.0074112597,-0.02802166,-4.1159267,0.09359553,-0.04964395,-0.025191424,-0.0035410686,-0.002140997,0.0016744286,1.8465246,-0.084621884,-0.06313528,-0.017256947,0.008934343,487.9868,9.193027,0.11996755,0.122382626,0.08014252,0.06892878,inf,inf,inf,inf,1,1,1,1,2,2,2,2,3,1,1,1,0,0,0
1777320795925000,1777320795925000,1777320746705000,47.397742099999995,8.545594,-4.362594,0.12655832,-9.112451,-0.001151283,0.0074112597,-0.02802166,-2.8881302,0.06705396,-0.056128934,-0.027494155,-0.0035410686,-0.002140997,0.0016744286,3.6916223,-0.08499068,0.08213426,-0.01734877,0.008934343,487.9868,9.203126,0.121193595,0.123736955,0.083279796,0.069304645,inf,inf,inf,inf,1,1,1,1,2,2,2,2,3,1,1,1,0,0,0
1777320796429000,1777320796429000,1777320746705000,47.397742099999995,8.545594,-5.6688504,0.16648051,-9.116697,-0.001151283,0.0074112597,-0.02802166,-1.1898781,0.027823905,-0.020478649,0.006972487,-0.0035410686,-0.002140997,0.0016744286,3.84803,-0.07131936,0.024831852,-0.017445536,0.008934343,487.9868,9.207373,0.120265715,0.123019494,0.086809,0.06870682,inf,inf,inf,inf,1,1,1,1,2,2,2,2,3,1,1,1,0,0,0
1777320796925000,1777320796925000,1777320746705000,47.397742099999995,8.545594,-6.054569,0.18500401,-9.114276,-0.001151283,0.0074112597,-0.02802166,0.53842694,-0.015720906,-0.0023027293,0.020671085,-0.0035410686,-0.002140997,0.0016744286,3.7465315,-0.10229627,0.03378931,-0.01719386,0.008934343,487.9868,9.204951,0.121798724,0.12414908,0.09062276,0.06944223,inf,inf,inf,inf,1,1,1,1,2,2,2,2,3,1,1,1,0,0,0
1777320797429000,1777320797429000,1777320746705000,47.397742099999995,8.545594,-5.521938,0.18307766,-9.103668,-0.001151283,0.0074112597,-0.02802166,2.029494,-0.04631623,0.021623624,0.03880816,-0.0035410686,-0.002140997,0.0016744286,2.3915997,-0.09202667,-0.0040307636,-0.016954064,0.008934343,487.9868,9.194344,0.12118508,0.12337287,0.089293204,0.0693095,inf,inf,inf,inf,1,1,1,1,2,2,2,2,3,1,1,1,0,0,0
1777320797925000,1777320797925000,1777320746705000,47.397742099999995,8.545594,-4.2928214,0.16504872,-9.094575,-0.001151283,0.0074112597,-0.02802166,2.9399836,-0.07019999,-0.0042410833,0.010364141,-0.0035410686,-0.002140997,0.0016744286,1.5147603,-0.056945678,-0.031770203,-0.017081693,0.008934343,487.9868,9.18525,0.1201098,0.12230502,0.085254475,0.068908796,inf,inf,inf,inf,1,1,1,1,2,2,2,2,3,1,1,1,0,0,0
1777320798429000,1777320798429000,1777320746705000,47.397742099999995,8.545594,-2.514247,0.13735053,-9.086722,-0.001151283,0.0074112597,-0.02802166,3.806436,-0.09005105,-0.020356007,-0.00046947895,-0.0035410686,-0.002140997,0.0016744286,1.7618403,-0.039261892,-0.027786007,-0.016583318,0.008934343,487.9868,9.177398,0.122081004,0.123963445,0.08439555,0.06988219,inf,inf,inf,inf,1,1,1,1,2,2,2,2,3,1,1,1,0,0,0
1777320798925000,1777320798925000,1777320746705000,47.397742099999995,8.545594,-0.32049707,0.09742773,-9.080211,-0.001151283,0.0074112597,-0.02802166,4.4629164,-0.11143857,-0.015578026,0.0058073676,-0.0035410686,-0.002140997,0.0016744286,0.36251837,-0.0529706,-0.071601,-0.01788436,0.008934343,487.9868,9.170886,0.12076865,0.12296522,0.08179336,0.06934903,inf,inf,inf,inf,1,1,1,1,2,2,2,2,3,1,1,1,0,0,0
1777320799429000,1777320799429000,1777320746705000,47.397742099999995,8.545594,2.0865955,0.04886764,-9.08143,-0.001151283,0.0074112597,-0.02802166,4.321323,-0.11117914,-0.035251997,-0.014005987,-0.0035410686,-0.002140997,0.0016744286,-1.4450625,-0.039904475,-0.017537734,-0.017832635,0.008934343,487.9868,9.172106,0.1224961,0.1245481,0.08185423,0.07008787,inf,inf,inf,inf,1,1,1,1,2,2,2,2,3,1,1,1,0,0,0
1777320799925000,1777320799925000,1777320746705000,47.397742099999995,8.545594,4.2342496,0.0029068247,-9.090628,-0.001151283,0.0074112597,-0.02802166,3.273454,-0.10063946,-0.055110335,-0.031351708,-0.0035410686,-0.002140997,0.0016744286,-3.449255,0.0248958,0.0117635345,-0.017452352,0.008934343,487.9868,9.181303,0.121051505,0.12352891,0.08163722,0.06921502,inf,inf,inf,inf,1,1,1,1,2,2,2,2,3,1,1,1,0,0,0
1777320800429000,1777320800429000,1777320746705000,47.397742099999995,8.545594,5.7364726,-0.029814884,-9.096624,-0.001151283,0.0074112597,-0.02802166,1.5661821,-0.06727193,-0.011350043,0.010731981,-0.0035410686,-0.002140997,0.0016744286,-3.9443884,0.07239523,0.040833835,-0.01779555,0.008934343,487.9868,9.1873,0.120062456,0.12287494,0.08431629,0.068570696,inf,inf,inf,inf,1,1,1,1,2,2,2,2,3,1,1,1,0,0,0
1777320800925000,1777320800925000,1777320746705000,47.397742099999995,8.545594,6.322058,-0.03870934,-9.092228,-0.001151283,0.0074112597,-0.02802166,-0.19755442,-0.0076893866,-0.00015360994,0.01903303,-0.0035410686,-0.002140997,0.0016744286,-3.8186376,0.14621608,0.016777774,-0.018901324,0.008934343,487.9868,9.182903,0.12147122,0.123998314,0.08844024,0.06929894,inf,inf,inf,inf,1,1,1,1,2,2,2,2,3,1,1,1,0,0,0
1777320801429000,1777320801429000,1777320746705000,47.397742099999995,8.545594,5.9610276,-0.009583112,-9.085818,-0.001151283,0.0074112597,-0.02802166,-1.7994884,0.06895603,0.020379867,0.03343647,-0.0035410686,-0.002140997,0.0016744286,-2.649411,0.15954018,0.0045010815,-0.018248346,0.008934343,487.9868,9.176494,0.120797165,0.12312583,0.088140845,0.06915715,inf,inf,inf,inf,1,1,1,1,2,2,2,2,3,1,1,1,0,0,0
1777320801925000,1777320801925000,1777320746705000,47.397742099999995,8.545594,4.851152,0.05386219,-9.080401,-0.001151283,0.0074112597,-0.02802166,-2.75705,0.11437897,-0.0011624107,0.007288806,-0.0035410686,-0.002140997,0.0016744286,-1.4682833,0.038593195,-0.09336415,-0.018442722,0.008934343,487.9868,9.171077,0.12246338,0.12438211,0.08702341,0.07004616,inf,inf,inf,inf,1,1,1,1,2,2,2,2,3,1,1,1,0,0,0
1777320802429000,1777320802429000,1777320746705000,47.397742099999995,8.545594,3.1829448,0.13723668,-9.077892,-0.001151283,0.0074112597,-0.02802166,-3.5532596,0.11352089,-0.01755216,-0.006840754,-0.0035410686,-0.002140997,0.0016744286,-1.4877245,-0.123738796,-0.03604963,-0.018096538,0.008934343,487.9868,9.168568,0.12169652,0.12366568,0.083889574,0.06975937,inf,inf,inf,inf,1,1,1,1,2,2,2,2,3,1,1,1,0,0,0
1777320802925000,1777320802925000,1777320746705000,47.397742099999995,8.545594,1.0920227,0.21307088,-9.072434,-0.001151283,0.0074112597,-0.02802166,-4.3099017,0.08223302,-0.0072642174,0.0071293204,-0.0035410686,-0.002140997,0.0016744286,-0.7387417,-0.10455388,-0.045164485,-0.017021904,0.008934343,487.9868,9.16311,0.12046017,0.12288632,0.081560686,0.069316745,inf,inf,inf,inf,1,1,1,1,2,2,2,2,3,1,1,1,0,0,0
1777320803429000,1777320803429000,1777320746705000,47.397742099999995,8.545594,-1.2806902,0.27454233,-9.068169,-0.001151283,0.0074112597,-0.02802166,-4.359493,0.05377781,-0.02787034,-0.010024629,-0.0035410686,-0.002140997,0.0016744286,0.9786994,-0.1603603,-0.1130402,-0.016584206,0.008934343,487.9868,9.158844,0.12222975,0.12452138,0.08178406,0.070114575,inf,inf,inf,inf,1,1,1,1,2,2,2,2,3,1,1,1,0,0,0
1777320803925000,1777320803925000,1777320746705000,47.397742099999995,8.545594,-3.4954584,0.3137376,-9.07073,-0.001151283,0.0074112597,-0.02802166,-3.5616465,0.017973036,-0.05422787,-0.0298678,-0.0035410686,-0.002140997,0.0016744286,2.9425814,-0.054544672,-0.06568897,-0.017147534,0.008934343,487.9868,9.161406,0.1208325,0.123348825,0.08124924,0.069261886,inf,inf,inf,inf,1,1,1,1,2,2,2,2,3,1,1,1,0,0,0
1777320804429000,1777320804429000,1777320746705000,47.397742099999995,8.545594,-5.1751695,0.32830104,-9.074449,-0.001151283,0.0074112597,-0.02802166,-1.9783707,-0.019671097,-0.03334821,-0.0032352682,-0.0035410686,-0.002140997,0.0016744286,3.8301082,-0.06383425,0.038510185,-0.017473845,0.008934343,487.9868,9.165124,0.11989183,0.1225411,0.08357706,0.06853348,inf,inf,inf,inf,1,1,1,1,2,2,2,2,3,1,1,1,0,0,0
1777320804925000,1777320804925000,1777320746705000,47.397742099999995,8.545594,-5.9924707,0.33079067,-9.072852,-0.001151283,0.0074112597,-0.02802166,-0.26887175,-0.015495358,-0.013364897,0.014885521,-0.0035410686,-0.002140997,0.0016744286,3.7765312,0.07864095,0.017701646,-0.017107224,0.008934343,487.9868,9.1635275,0.121291704,0.12372381,0.08787813,0.06916137,inf,inf,inf,inf,1,1,1,1,2,2,2,2,3,1,1,1,0,0,0
1777320805429000,1777320805429000,1777320746705000,47.397742099999995,8.545594,-5.8795476,0.33335778,-9.065152,-0.001151283,0.0074112597,-0.02802166,1.4366099,-0.001189842,0.0146301305,0.038627945,-0.0035410686,-0.002140997,0.0016744286,3.1450129,0.043132517,0.030565074,-0.01652854,0.008934343,487.9868,9.1558275,0.12061856,0.12295367,0.08830507,0.068980254,inf,inf,inf,inf,1,1,1,1,2,2,2,2,3,1,1,1,0,0,0
1777320805925000,1777320805925000,1777320746705000,47.397742099999995,8.545594,-4.9470987,0.33518082,-9.056145,-0.001151283,0.0074112597,-0.02802166,2.541814,-0.0042801835,0.003530016,0.020104839,-0.0035410686,-0.002140997,0.0016744286,1.7176929,-0.002907136,-0.07741525,-0.016752314,0.008934343,487.9868,9.14682,0.12229522,0.12413205,0.08778147,0.069867864,inf,inf,inf,inf,1,1,1,1,2,2,2,2,3,1,1,1,0,0,0
1777320806429000,1777320806429000,1777320746705000,47.397742099999995,8.545594,-3.4123893,0.33459932,-9.05547,-0.001151283,0.0074112597,-0.02802166,3.3556874,-0.011625611,-0.016897663,-0.0036462506,-0.0035410686,-0.002140997,0.0016744286,1.5550388,-0.005943389,0.005371868,-0.017245509,0.008934343,487.9868,9.146146,0.121560566,0.123576485,0.08449278,0.06964847,inf,inf,inf,inf,1,1,1,1,2,2,2,2,3,1,1,1,0,0,0
1777320806925000,1777320806925000,1777320746705000,47.397742099999995,8.545594,-1.4262282,0.32663533,-9.059828,-0.001151283,0.0074112597,-0.02802166,4.207133,-0.029782917,-0.008080999,0.0030467557,-0.0035410686,-0.002140997,0.0016744286,1.1236054,-0.11337578,0.06892904,-0.017253092,0.008934343,487.9868,9.150503,0.120330974,0.1226147,0.081988245,0.06916458,inf,inf,inf,inf,1,1,1,1,2,2,2,2,3,1,1,1,0,0,0
1777320807429000,1777320807429000,1777320746705000,47.397742099999995,8.545594,0.9254216,0.3048168,-9.056456,-0.001151283,0.0074112597,-0.02802166,4.475233,-0.048117444,-0.0119276745,-0.0001143908,-0.0035410686,-0.002140997,0.0016744286,-0.5017292,0.027428264,-0.029371118,-0.017252225,0.008934343,487.9868,9.147131,0.122152425,0.124280766,0.082002565,0.07003646,inf,inf,inf,inf,1,1,1,1,2,2,2,2,3,1,1,1,0,0,0
1777320807925000,1777320807925000,1777320746705000,47.397742099999995,8.545594,3.2285395,0.27636087,-9.057915,-0.001151283,0.0074112597,-0.02802166,3.9137268,-0.03508668,-0.034175806,-0.019467339,-0.0035410686,-0.002140997,0.0016744286,-2.3889854,0.046239696,-0.03375299,-0.016502487,0.008934343,487.9868,9.14859,0.12075604,0.123196274,0.08060043,0.06925882,inf,inf,inf,inf,1,1,1,1,2,2,2,2,3,1,1,1,0,0,0
1777320808429000,1777320808429000,1777320746705000,47.397742099999995,8.545594,5.11238,0.25220144,-9.0598955,-0.001151283,0.0074112597,-0.02802166,2.4592147,-0.012236726,-0.024879634,-0.0030549956,-0.0035410686,-0.002140997,0.0016744286,-3.7794616,0.108627625,0.067074776,-0.0169171,0.008934343,487.9868,9.150571,0.11977547,0.122402065,0.08176606,0.06851381,inf,inf,inf,inf,1,1,1,1,2,2,2,2,3,1,1,1,0,0,0
