timestamp,timestamp_sample,ref_timestamp,ref_lat,ref_lon,x,y,z,delta_xy[0],delta_xy[1],delta_z,vx,vy,vz,z_deriv,delta_vxy[0],delta_vxy[1],delta_vz,ax,ay,az,heading,heading_var,unaided_heading,delta_heading,tilt_var,ref_alt,dist_bottom,dist_bottom_var,delta_dist_bottom,eph,epv,evh,evv,vxy_max,vz_max,hagl_min,hagl_max_z,hagl_max_xy,xy_valid,z_valid,v_xy_valid,v_z_valid,xy_reset_counter,z_reset_counter,vxy_reset_counter,vz_reset_counter,heading_reset_counter,heading_good_for_control,xy_global,z_global,dist_bottom_valid,dist_bottom_reset_counter,dist_bottom_sensor_bitfield,dead_reckoning
1777225797569000,1777225797569000,1777225652689000,47.397742,8.5455943,0.039063368,0.001759816,-0.029418945,-0.0005730107,0.0002314337,-487.9991,-0.0015220467,0.011153509,-0.016376762,0.0010952726,-2.551949e-05,-1.4980818e-05,4.813075e-06,-0.030292302,-0.03389547,0.0084200865,0.015785182,0.00036158806,0.015773805,0.0050611896,2.051465e-05,487.9991,0.010009766,1e-04,-487.9991,0.12028246,0.11304441,0.080256015,0.049343027,inf,inf,inf,inf,inf,1,1,1,1,3,2,2,1,2,1,1,1,0,2,0,0
1777225797577000,1777225797577000,1777225652689000,47.397742,8.5455943,0.03912535,0.0018146416,-0.029418945,-0.0005730107,0.0002314337,-487.9991,-0.0014035916,0.0110394005,-0.016353872,0.001099701,-2.551949e-05,-1.4980818e-05,4.813075e-06,0.011511339,-0.00892663,-0.0035483388,0.015673524,0.0003616987,0.015664024,0.0050611896,2.0558864e-05,487.9991,0.010009766,1e-04,-487.9991,0.120687164,0.11329528,0.08055703,0.04942627,inf,inf,inf,inf,inf,1,1,1,1,3,2,2,1,2,1,1,1,0,2,0,0
1777225797585000,1777225797585000,1777225652689000,47.397742,8.5455943,0.039189562,0.0018718971,-0.029449463,-0.0005730107,0.0002314337,-487.9991,-0.0011061161,0.011193035,-0.016188841,0.0012421974,-2.551949e-05,-1.4980818e-05,4.813075e-06,0.033727095,0.024253719,0.014428514,0.015705707,0.00036098724,0.015698053,0.0050611896,2.059188e-05,487.9991,0.010009766,1e-04,-487.9991,0.121092305,0.11354698,0.08084795,0.049509387,inf,inf,inf,inf,inf,1,1,1,1,3,2,2,1,2,1,1,1,0,2,0,0
1777225797593000,1777225797593000,1777225652689000,47.397742,8.5455943,0.039253213,0.0019301057,-0.029449463,-0.0005730107,0.0002314337,-487.9991,-0.0011458735,0.011043571,-0.015800467,0.0016041617,-2.551949e-05,-1.4980818e-05,4.813075e-06,-0.008354428,-0.013781125,0.042549796,0.015671002,0.00036109766,0.015666032,0.0050611896,2.0636158e-05,487.9991,0.010009766,1e-04,-487.9991,0.121502474,0.11379953,0.08114839,0.049592383,inf,inf,inf,inf,inf,1,1,1,1,3,2,2,1,2,1,1,1,0,2,0,0
1777225797601000,1777225797601000,1777225652689000,47.397742,8.5455943,0.03931442,0.0019877632,-0.029449463,-0.0005730107,0.0002314337,-487.9991,-0.0014396185,0.010821108,-0.0154805705,0.0018939677,-2.551949e-05,-1.4980818e-05,4.813075e-06,-0.040036697,-0.023054915,0.03418745,0.0157236,0.00036120802,0.015721284,0.0050611896,2.0680469e-05,487.9991,0.010009766,1e-04,-487.9991,0.1219154,0.114052914,0.08144914,0.04967525,inf,inf,inf,inf,inf,1,1,1,1,3,2,2,1,2,1,1,1,0,2,0,0
1777225797609000,1777225797609000,1777225652689000,47.397742,8.5455943,0.03938206,0.002031846,-0.029449463,-0.0005730107,0.0002314337,-487.9991,-0.0015561891,0.010689627,-0.0153576145,0.0020087576,-2.551949e-05,-1.4980818e-05,4.813075e-06,-0.018178709,-0.010214055,0.0084475605,0.015759211,0.00036130194,0.015759518,0.0050611896,2.0447078e-05,487.9991,0.010009766,1e-04,-487.9991,0.11968363,0.11267098,0.07981355,0.04921893,inf,inf,inf,inf,inf,1,1,1,1,3,2,2,1,2,1,1,1,0,2,0,0
1777225797617000,1777225797617000,1777225652689000,47.397742,8.5455943,0.039447334,0.0020758037,-0.029418945,-0.0005730107,0.0002314337,-487.9991,-0.0017495013,0.010522604,-0.0153657,0.0019881763,-2.551949e-05,-1.4980818e-05,4.813075e-06,-0.02768943,-0.01484092,-0.0077085565,0.015805507,0.0003614124,0.01580846,0.0050611896,2.0491232e-05,487.9991,0.010009766,1e-04,-487.9991,0.12008428,0.11292059,0.0801125,0.049302362,inf,inf,inf,inf,inf,1,1,1,1,3,2,2,1,2,1,1,1,0,2,0,0
1777225797625000,1777225797625000,1777225652689000,47.397742,8.5455943,0.039510105,0.002120714,-0.029418945,-0.0005730107,0.0002314337,-487.9991,-0.0017146338,0.010506171,-0.015567086,0.0017701623,-2.551949e-05,-1.4980818e-05,4.813075e-06,0.0009079876,0.0038061568,-0.031653322,0.015787996,0.000361523,0.015793504,0.0050611896,2.0535428e-05,487.9991,0.010009766,1e-04,-487.9991,0.12048766,0.11317104,0.08041258,0.04938567,inf,inf,inf,inf,inf,1,1,1,1,3,2,2,1,2,1,1,1,0,2,0,0
1777225797633000,1777225797633000,1777225652689000,47.397742,8.5455943,0.03957233,0.0021661646,-0.029418945,-0.0005730107,0.0002314337,-487.9991,-0.0016689542,0.010458832,-0.015545147,0.0017715397,-2.551949e-05,-1.4980818e-05,4.813075e-06,0.0023318199,-0.00023079792,-0.0035264527,0.015814187,0.00036163363,0.015822155,0.0050611896,2.057966e-05,487.9991,0.010009766,1e-04,-487.9991,0.120893784,0.113422334,0.080712505,0.049468853,inf,inf,inf,inf,inf,1,1,1,1,3,2,2,1,2,1,1,1,0,2,0,0
1777225797641000,1777225797641000,1777225652689000,47.397742,8.5455943,0.039633416,0.0022137936,-0.029418945,-0.0005730107,0.0002314337,-487.9991,-0.0016598717,0.010667747,-0.015079271,0.0022130841,-2.551949e-05,-1.4980818e-05,4.813075e-06,-0.0021714964,0.031634342,0.052170824,0.015816068,0.00036174429,0.01582641,0.0050611896,2.0623931e-05,487.9991,0.010009766,1e-04,-487.9991,0.121302664,0.11367447,0.0810125,0.049551908,inf,inf,inf,inf,inf,1,1,1,1,3,2,2,1,2,1,1,1,0,2,0,0
1777225797649000,1777225797649000,1777225652689000,47.397742,8.5455943,0.039692864,0.002264162,-0.029418945,-0.0005730107,0.0002314337,-487.9991,-0.0017616675,0.010914487,-0.015155973,0.0021084382,-2.551949e-05,-1.4980818e-05,4.813075e-06,-0.01596453,0.036211718,-0.015452038,0.015813738,0.00036103308,0.015826354,0.0050611896,2.0656931e-05,487.9991,0.010009766,1e-04,-487.9991,0.1217119,0.11392744,0.08130364,0.049634837,inf,inf,inf,inf,inf,1,1,1,1,3,2,2,1,2,1,1,1,0,2,0,0
1777225797657000,1777225797657000,1777225652689000,47.397742,8.5455943,0.03974968,0.0023169713,-0.029449463,-0.0005730107,0.0002314337,-487.9991,-0.0020357312,0.010955471,-0.01550186,0.0017331565,-2.551949e-05,-1.4980818e-05,4.813075e-06,-0.03742176,0.010334829,-0.048977785,0.01582335,0.00036114352,0.015837962,0.0050611896,2.0701265e-05,487.9991,0.010009766,1e-04,-487.9991,0.122126244,0.11412105,0.08160431,0.049706932,inf,inf,inf,inf,inf,1,1,1,1,3,2,2,1,2,1,1,1,0,2,0,0
1777225797665000,1777225797665000,1777225652689000,47.397742,8.5455943,0.039801326,0.0023581458,-0.029418945,-0.0005730107,0.0002314337,-487.9991,-0.0023681938,0.011181307,-0.015891515,0.0013351105,-2.551949e-05,-1.4980818e-05,4.813075e-06,-0.044445395,0.034957495,-0.05553802,0.015823524,0.00036123712,0.015840037,0.0050611896,2.0465826e-05,487.9991,0.010009766,1e-04,-487.9991,0.119879566,0.11279425,0.07995613,0.04925949,inf,inf,inf,inf,inf,1,1,1,1,3,2,2,1,2,1,1,1,0,2,0,0
1777225797673000,1777225797673000,1777225652689000,47.397742,8.5455943,0.039850138,0.0024030595,-0.029418945,-0.0005730107,0.0002314337,-487.9991,-0.002453091,0.011570315,-0.015550333,0.001663665,-2.551949e-05,-1.4980818e-05,4.813075e-06,-0.013444033,0.05515646,0.03603799,0.015827946,0.00036134763,0.015846381,0.0050611896,2.0510002e-05,487.9991,0.010009766,1e-04,-487.9991,0.12028152,0.11304427,0.0802555,0.04934286,inf,inf,inf,inf,inf,1,1,1,1,3,2,2,1,2,1,1,1,0,2,0,0
1777225797681000,1777225797681000,1777225652689000,47.397742,8.5455943,0.03989825,0.0024512054,-0.029418945,-0.0005730107,0.0002314337,-487.9991,-0.002286317,0.011491041,-0.015489172,0.0017081555,-2.551949e-05,-1.4980818e-05,4.813075e-06,0.018073395,-0.0035720703,0.0012503004,0.015769582,0.00036145817,0.01578984,0.0050611896,2.0554215e-05,487.9991,0.010009766,1e-04,-487.9991,0.12068622,0.11329514,0.08055551,0.04942611,inf,inf,inf,inf,inf,1,1,1,1,3,2,2,1,2,1,1,1,0,2,0,0
1777225797689000,1777225797689000,1777225652689000,47.397742,8.5455943,0.03994624,0.0024984889,-0.029418945,-0.0005730107,0.0002314337,-487.9991,-0.0022035837,0.0112066055,-0.015219088,0.0019577327,-2.551949e-05,-1.4980818e-05,4.813075e-06,0.007626535,-0.029403532,0.027574597,0.015696362,0.00036156876,0.015718384,0.0050611896,2.0598465e-05,487.9991,0.010009766,1e-04,-487.9991,0.12109366,0.11354684,0.08085588,0.049509227,inf,inf,inf,inf,inf,1,1,1,1,3,2,2,1,2,1,1,1,0,2,0,0
1777225797697000,1777225797697000,1777225652689000,47.397742,8.5455943,0.039993674,0.0025465332,-0.029418945,-0.0005730107,0.0002314337,-487.9991,-0.002209614,0.0112657305,-0.014859311,0.0022933139,-2.551949e-05,-1.4980818e-05,4.813075e-06,-0.0034140914,0.013372395,0.038988885,0.01568491,0.00036167938,0.015708635,0.0050611896,2.0642754e-05,487.9991,0.010009766,1e-04,-487.9991,0.12150387,0.11379938,0.081155404,0.04959222,inf,inf,inf,inf,inf,1,1,1,1,3,2,2,1,2,1,1,1,0,2,0,0
1777225797705000,1777225797705000,1777225652689000,47.397742,8.5455943,0.040039126,0.0025954575,-0.029418945,-0.0005730107,0.0002314337,-487.9991,-0.0023666539,0.011163713,-0.015377402,0.0017474279,-2.551949e-05,-1.4980818e-05,4.813075e-06,-0.022237625,-0.006941632,-0.07054768,0.015692739,0.00036178998,0.015718102,0.0050611896,2.0687075e-05,487.9991,0.010009766,1e-04,-487.9991,0.12191683,0.114052765,0.08145521,0.049675085,inf,inf,inf,inf,inf,1,1,1,1,3,2,2,1,2,1,1,1,0,2,0,0
1777225797713000,1777225797713000,1777225652689000,47.397742,8.5455943,0.040081784,0.0026321008,-0.029418945,-0.0005730107,0.0002314337,-487.9991,-0.0024595521,0.011216355,-0.015494214,0.0016047624,-2.551949e-05,-1.4980818e-05,4.813075e-06,-0.014027193,0.013890807,-0.020860227,0.01563143,0.00036188436,0.015658375,0.0050611896,2.0453468e-05,487.9991,0.010009766,1e-04,-487.9991,0.119684875,0.11267084,0.07981979,0.04921877,inf,inf,inf,inf,inf,1,1,1,1,3,2,2,1,2,1,1,1,0,2,0,0
1777225797721000,1777225797721000,1777225652689000,47.397742,8.5455943,0.04012409,0.002667973,-0.029449463,-0.0005730107,0.0002314337,-487.9991,-0.0022583532,0.011054238,-0.015617769,0.0014518292,-2.551949e-05,-1.4980818e-05,4.813075e-06,0.022741977,-0.012894317,-0.021498183,0.01568405,0.00036101235,0.015712628,0.0050611896,2.0484475e-05,487.9991,0.010009766,1e-04,-487.9991,0.120083,0.112920456,0.0801079,0.049302205,inf,inf,inf,inf,inf,1,1,1,1,3,2,2,1,2,1,1,1,0,2,0,0
1777225797729000,1777225797729000,1777225652689000,47.397742,8.5455943,0.0401663,0.0027047498,-0.029449463,-0.0005730107,0.0002314337,-487.9991,-0.0023091359,0.010972005,-0.01589114,0.0011456793,-2.551949e-05,-1.4980818e-05,4.813075e-06,-0.008708888,-0.0031260862,-0.040026378,0.015661445,0.00036112271,0.015690146,0.0050611896,2.052866e-05,487.9991,0.010009766,1e-04,-487.9991,0.12048635,0.11317091,0.08040728,0.049385514,inf,inf,inf,inf,inf,1,1,1,1,3,2,2,1,2,1,1,1,0,2,0,0
1777225797737000,1777225797737000,1777225652689000,47.397742,8.5455943,0.04020675,0.0027426882,-0.02947998,-0.0005730107,0.0002314337,-487.9991,-0.002300594,0.010973846,-0.016204331,0.000796425,-2.551949e-05,-1.4980818e-05,4.813075e-06,-0.0012477002,0.0071765017,-0.044810582,0.015638916,0.00036123305,0.015667679,0.0050611896,2.0572877e-05,487.9991,0.010009766,1e-04,-487.9991,0.12089244,0.1134222,0.08070664,0.049468696,inf,inf,inf,inf,inf,1,1,1,1,3,2,2,1,2,1,1,1,0,2,0,0
1777225797745000,1777225797745000,1777225652689000,47.397742,8.5455943,0.040247727,0.0027812344,-0.029510498,-0.0005730107,0.0002314337,-487.9991,-0.0020633321,0.010826279,-0.016318165,0.00064330647,-2.551949e-05,-1.4980818e-05,4.813075e-06,0.027386537,-0.011699717,-0.019703524,0.015607997,0.0003613434,0.015636759,0.0050611896,2.0617133e-05,487.9991,0.010009766,1e-04,-487.9991,0.121301286,0.11367433,0.081005566,0.049551748,inf,inf,inf,inf,inf,1,1,1,1,3,2,2,1,2,1,1,1,0,2,0,0
1777225797753000,1777225797753000,1777225652689000,47.397742,8.5455943,0.040288825,0.0028207062,-0.029541016,-0.0005730107,0.0002314337,-487.9991,-0.0020274534,0.010764317,-0.016308775,0.00061023206,-2.551949e-05,-1.4980818e-05,4.813075e-06,0.0022634468,-0.0011997921,-0.0041187736,0.01553242,0.000361454,0.015561102,0.0050611896,2.0661437e-05,487.9991,0.010009766,1e-04,-487.9991,0.12171289,0.1139273,0.081304826,0.049634673,inf,inf,inf,inf,inf,1,1,1,1,3,2,2,1,2,1,1,1,0,2,0,0
1777225797761000,1777225797761000,1777225652689000,47.397742,8.5455943,0.040328957,0.0028603303,-0.029571533,-0.0005730107,0.0002314337,-487.9991,-0.0021001415,0.010573908,-0.016692845,0.00018261507,-2.551949e-05,-1.4980818e-05,4.813075e-06,-0.011260744,-0.01744022,-0.05320692,0.015526169,0.0003615645,0.015554688,0.0050611896,2.0705771e-05,487.9991,0.010009766,1e-04,-487.9991,0.12212725,0.11412091,0.08160498,0.04970677,inf,inf,inf,inf,inf,1,1,1,1,3,2,2,1,2,1,1,1,0,2,0,0
1777225797769000,1777225797769000,1777225652689000,47.397742,8.5455943,0.04036673,0.0028805537,-0.02960205,-0.0005730107,0.0002314337,-487.9991,-0.0023168386,0.010514719,-0.016597772,0.00024145108,-2.551949e-05,-1.4980818e-05,4.813075e-06,-0.029171376,0.00066057825,0.0060778107,0.015510375,0.00036165872,0.0155386515,0.0050611896,2.0470226e-05,487.9991,0.010009766,1e-04,-487.9991,0.119880475,0.11279411,0.079957336,0.049259324,inf,inf,inf,inf,inf,1,1,1,1,3,2,2,1,2,1,1,1,0,2,0,0
1777225797777000,1777225797777000,1777225652689000,47.397742,8.5455943,0.040402774,0.0029018603,-0.02960205,-0.0005730107,0.0002314337,-487.9991,-0.002332844,0.010396164,-0.016030373,0.00076930545,-2.551949e-05,-1.4980818e-05,4.813075e-06,-0.00404799,-0.0069842064,0.06531039,0.015526435,0.00036176931,0.015554512,0.0050611896,2.0514402e-05,487.9991,0.010009766,1e-04,-487.9991,0.12028245,0.113044135,0.08025717,0.0493427,inf,inf,inf,inf,inf,1,1,1,1,3,2,2,1,2,1,1,1,0,2,0,0
1777225797785000,1777225797785000,1777225652689000,47.397742,8.5455943,0.040438134,0.0029252733,-0.029632568,-0.0005730107,0.0002314337,-487.9991,-0.0021388486,0.010604344,-0.015799467,0.0009575182,-2.551949e-05,-1.4980818e-05,4.813075e-06,0.022330508,0.033692572,0.023434868,0.015512803,0.0003610582,0.015540601,0.0050611896,2.0547446e-05,487.9991,0.010009766,1e-04,-487.9991,0.120684884,0.113295,0.080547534,0.049425945,inf,inf,inf,inf,inf,1,1,1,1,3,2,2,1,2,1,1,1,0,2,0,0
1777225797793000,1777225797793000,1777225652689000,47.397742,8.5455943,0.040474106,0.0029506637,-0.029663086,-0.0005730107,0.0002314337,-487.9991,-0.0020254795,0.010513595,-0.015661215,0.0010499969,-2.551949e-05,-1.4980818e-05,4.813075e-06,0.012282491,-0.003896692,0.012033618,0.015522066,0.00036116855,0.01554902,0.0050611896,2.0591686e-05,487.9991,0.010009766,1e-04,-487.9991,0.1210923,0.11354669,0.08084611,0.049509063,inf,inf,inf,inf,inf,1,1,1,1,3,2,2,1,2,1,1,1,0,2,0,0
1777225797801000,1777225797801000,1777225652689000,47.397742,8.5455943,0.040510293,0.0029774746,-0.029693604,-0.0005730107,0.0002314337,-487.9991,-0.0018856901,0.0106248045,-0.015619972,0.0010424715,-2.551949e-05,-1.4980818e-05,4.813075e-06,0.01561841,0.021139536,8.335336e-05,0.015509068,0.00036127894,0.015535109,0.0050611896,2.0635962e-05,487.9991,0.010009766,1e-04,-487.9991,0.12150246,0.11379924,0.08114632,0.04959205,inf,inf,inf,inf,inf,1,1,1,1,3,2,2,1,2,1,1,1,0,2,0,0
1777225797809000,1777225797809000,1777225652689000,47.397742,8.5455943,0.04054572,0.0030076855,-0.029754639,-0.0005730107,0.0002314337,-487.9991,-0.0020508426,0.0108230235,-0.01540745,0.001203409,-2.551949e-05,-1.4980818e-05,4.813075e-06,-0.022461195,0.031813156,0.021663493,0.015471588,0.00036138936,0.01549664,0.0050611896,2.0680276e-05,487.9991,0.010009766,1e-04,-487.9991,0.12191537,0.114052616,0.08144744,0.049674917,inf,inf,inf,inf,inf,1,1,1,1,3,2,2,1,2,1,1,1,0,2,0,0
1777225797817000,1777225797817000,1777225652689000,47.397742,8.5455943,0.040579125,0.0030200216,-0.029754639,-0.0005730107,0.0002314337,-487.9991,-0.00229439,0.010748697,-0.015510428,0.0010586274,-2.551949e-05,-1.4980818e-05,4.813075e-06,-0.03229353,-0.0005349234,-0.018463468,0.015467208,0.00036148357,0.015491211,0.0050611896,2.0446887e-05,487.9991,0.010009766,1e-04,-487.9991,0.119683616,0.1126707,0.07981271,0.049218606,inf,inf,inf,inf,inf,1,1,1,1,3,2,2,1,2,1,1,1,0,2,0,0
1777225797825000,1777225797825000,1777225652689000,47.397742,8.5455943,0.040610965,0.0030330343,-0.029785156,-0.0005730107,0.0002314337,-487.9991,-0.0023132602,0.010555284,-0.0157444,0.00077989453,-2.551949e-05,-1.4980818e-05,4.813075e-06,-0.0041766786,-0.01566376,-0.03465218,0.015416968,0.00036159408,0.015439986,0.0050611896,2.0491043e-05,487.9991,0.010009766,1e-04,-487.9991,0.120084256,0.11292031,0.08011097,0.04930204,inf,inf,inf,inf,inf,1,1,1,1,3,2,2,1,2,1,1,1,0,2,0,0
1777225797833000,1777225797833000,1777225652689000,47.397742,8.5455943,0.04064066,0.0030476346,-0.029846191,-0.0005730107,0.0002314337,-487.9991,-0.0026295246,0.010665066,-0.015792618,0.0006840324,-2.551949e-05,-1.4980818e-05,4.813075e-06,-0.041316405,0.021997862,-0.01125317,0.015394523,0.00036170462,0.015416495,0.0050611896,2.0535237e-05,487.9991,0.010009766,1e-04,-487.9991,0.12048763,0.113170765,0.08041032,0.04938535,inf,inf,inf,inf,inf,1,1,1,1,3,2,2,1,2,1,1,1,0,2,0,0
1777225797841000,1777225797841000,1777225652689000,47.397742,8.5455943,0.04066828,0.003064077,-0.029876709,-0.0005730107,0.0002314337,-487.9991,-0.002599185,0.010482187,-0.016120423,0.00030578382,-2.551949e-05,-1.4980818e-05,4.813075e-06,0.0020436186,-0.014820581,-0.04602689,0.015377479,0.0003618152,0.015398346,0.0050611896,2.0579468e-05,487.9991,0.010009766,1e-04,-487.9991,0.120893754,0.11342206,0.08070937,0.049468532,inf,inf,inf,inf,inf,1,1,1,1,3,2,2,1,2,1,1,1,0,2,0,0
1777225797849000,1777225797849000,1777225652689000,47.397742,8.5455943,0.04069556,0.0030819743,-0.029907227,-0.0005730107,0.0002314337,-487.9991,-0.0025710373,0.010656212,-0.016612057,-0.00023905165,-2.551949e-05,-1.4980818e-05,4.813075e-06,0.0018114543,0.029567456,-0.066335775,0.0153327705,0.00036192572,0.015352479,0.0050611896,2.0623727e-05,487.9991,0.010009766,1e-04,-487.9991,0.12130262,0.113674186,0.08100842,0.049551584,inf,inf,inf,inf,inf,1,1,1,1,3,2,2,1,2,1,1,1,0,2,0,0
1777225797857000,1777225797857000,1777225652689000,47.397742,8.5455943,0.040720776,0.0031027535,-0.029968262,-0.0005730107,0.0002314337,-487.9991,-0.0025421144,0.01068144,-0.01676996,-0.0004527737,-2.551949e-05,-1.4980818e-05,4.813075e-06,0.0023184428,0.010778109,-0.024454666,0.015308336,0.00036121407,0.015326821,0.0050611896,2.0656731e-05,487.9991,0.010009766,1e-04,-487.9991,0.12171184,0.113927156,0.08130055,0.04963451,inf,inf,inf,inf,inf,1,1,1,1,3,2,2,1,2,1,1,1,0,2,0,0
1777225797865000,1777225797865000,1777225652689000,47.397742,8.5455943,0.04074424,0.0031249411,-0.030029297,-0.0005730107,0.0002314337,-487.9991,-0.0026805284,0.01065583,-0.01681875,-0.00055880396,-2.551949e-05,-1.4980818e-05,4.813075e-06,-0.018576493,0.004213453,-0.010682735,0.015294756,0.00036132438,0.015311791,0.0050611896,2.0701056e-05,487.9991,0.010009766,1e-04,-487.9991,0.122126184,0.11412077,0.0816013,0.0497066,inf,inf,inf,inf,inf,1,1,1,1,3,2,2,1,2,1,1,1,0,2,0,0
1777225797873000,1777225797873000,1777225652689000,47.397742,8.5455943,0.04075818,0.003143778,-0.030059814,-0.0005730107,0.0002314337,-487.9991,-0.0025491675,0.010727129,-0.016929656,-0.00071889727,-2.551949e-05,-1.4980818e-05,4.813075e-06,0.015619655,0.017276088,-0.019068362,0.015230137,0.00036141818,0.0152456695,0.0050611896,2.046563e-05,487.9991,0.010009766,1e-04,-487.9991,0.11987952,0.112793975,0.07995429,0.049259167,inf,inf,inf,inf,inf,1,1,1,1,3,2,2,1,2,1,1,1,0,2,0,0
1777225797881000,1777225797881000,1777225652689000,47.397742,8.5455943,0.040771607,0.0031644253,-0.03012085,-0.0005730107,0.0002314337,-487.9991,-0.002726397,0.010814644,-0.01672577,-0.0005667617,-2.551949e-05,-1.4980818e-05,4.813075e-06,-0.022940813,0.019076442,0.020454636,0.01516765,0.00036152877,0.015181701,0.0050611896,2.050981e-05,487.9991,0.010009766,1e-04,-487.9991,0.12028147,0.11304399,0.08025423,0.04934254,inf,inf,inf,inf,inf,1,1,1,1,3,2,2,1,2,1,1,1,0,2,0,0
1777225797889000,1777225797889000,1777225652689000,47.397742,8.5455943,0.040782772,0.0031885046,-0.030181885,-0.0005730107,0.0002314337,-487.9991,-0.0029578796,0.011000345,-0.016484834,-0.00037995214,-2.551949e-05,-1.4980818e-05,4.813075e-06,-0.029710626,0.03112167,0.025254672,0.015120075,0.00036163928,0.015132633,0.0050611896,2.055402e-05,487.9991,0.010009766,1e-04,-487.9991,0.12068616,0.11329486,0.08055458,0.049425784,inf,inf,inf,inf,inf,1,1,1,1,3,2,2,1,2,1,1,1,0,2,0,0
1777225797897000,1777225797897000,1777225652689000,47.397742,8.5455943,0.04079209,0.0032151535,-0.030212402,-0.0005730107,0.0002314337,-487.9991,-0.0031295358,0.011120576,-0.015953196,9.5346884e-05,-2.551949e-05,-1.4980818e-05,4.813075e-06,-0.022227274,0.02271736,0.06175646,0.015087408,0.00036174976,0.01509846,0.0050611896,2.0598265e-05,487.9991,0.010009766,1e-04,-487.9991,0.1210936,0.11354656,0.080854796,0.049508903,inf,inf,inf,inf,inf,1,1,1,1,3,2,2,1,2,1,1,1,0,2,0,0
1777225797905000,1777225797905000,1777225652689000,47.397742,8.5455943,0.040798876,0.0032445441,-0.030273438,-0.0005730107,0.0002314337,-487.9991,-0.00345837,0.011145612,-0.015959125,3.0981377e-05,-2.551949e-05,-1.4980818e-05,4.813075e-06,-0.041869793,0.010605629,-0.005280133,0.015120839,0.0003618603,0.015130369,0.0050611896,2.0642547e-05,487.9991,0.010009766,1e-04,-487.9991,0.12150381,0.1137991,0.08115489,0.04959189,inf,inf,inf,inf,inf,1,1,1,1,3,2,2,1,2,1,1,1,0,2,0,0
1777225797913000,1777225797913000,1777225652689000,47.397742,8.5455943,0.04080344,0.0032745237,-0.030334473,-0.0005730107,0.0002314337,-487.9991,-0.003602849,0.010965404,-0.01611015,-0.00018043187,-2.551949e-05,-1.4980818e-05,4.813075e-06,-0.018820612,-0.0152528705,-0.023262573,0.015168142,0.00036197092,0.015176145,0.0050611896,2.0686868e-05,487.9991,0.010009766,1e-04,-487.9991,0.12191676,0.114052474,0.08145625,0.049674757,inf,inf,inf,inf,inf,1,1,1,1,3,2,2,1,2,1,1,1,0,2,0,0
1777225797921000,1777225797921000,1777225652689000,47.397742,8.5455943,0.040807556,0.0032985453,-0.03036499,-0.0005730107,0.0002314337,-487.9991,-0.0038642099,0.01054479,-0.015991336,-0.00010843086,-2.551949e-05,-1.4980818e-05,4.813075e-06,-0.033573557,-0.044436466,0.009649898,0.015117426,0.00036108348,0.015123894,0.0050611896,2.0440162e-05,487.9991,0.010009766,1e-04,-487.9991,0.119682334,0.11267056,0.079809286,0.04921845,inf,inf,inf,inf,inf,1,1,1,1,3,2,2,1,2,1,1,1,0,2,0,0
1777225797929000,1777225797929000,1777225652689000,47.397742,8.5455943,0.04081048,0.0033219259,-0.030426025,-0.0005730107,0.0002314337,-487.9991,-0.0038266846,0.010368587,-0.016113343,-0.00027966296,-2.551949e-05,-1.4980818e-05,4.813075e-06,0.0038037337,-0.014109567,-0.020279082,0.015044593,0.00036119376,0.015048189,0.0050611896,2.0484305e-05,487.9991,0.010009766,1e-04,-487.9991,0.120082945,0.11292017,0.080106914,0.049301885,inf,inf,inf,inf,inf,1,1,1,1,3,2,2,1,2,1,1,1,0,2,0,0
1777225797937000,1777225797937000,1777225652689000,47.397742,8.5455943,0.040812515,0.0033457917,-0.030456543,-0.0005730107,0.0002314337,-487.9991,-0.003976519,0.010317756,-0.016088068,-0.00030602043,-2.551949e-05,-1.4980818e-05,4.813075e-06,-0.019603923,0.0013372827,-0.0017001292,0.015088966,0.00036130406,0.015089683,0.0050611896,2.0528489e-05,487.9991,0.010009766,1e-04,-487.9991,0.12048629,0.113170624,0.08040578,0.049385194,inf,inf,inf,inf,inf,1,1,1,1,3,2,2,1,2,1,1,1,0,2,0,0
1777225797945000,1777225797945000,1777225652689000,47.397742,8.5455943,0.04081288,0.0033709835,-0.030517578,-0.0005730107,0.0002314337,-487.9991,-0.0040946137,0.010219888,-0.015863054,-0.00013498456,-2.551949e-05,-1.4980818e-05,4.813075e-06,-0.01562117,-0.0047593876,0.023431143,0.015134432,0.00036141442,0.015132265,0.0050611896,2.0572708e-05,487.9991,0.010009766,1e-04,-487.9991,0.12089238,0.11342191,0.08070511,0.049468372,inf,inf,inf,inf,inf,1,1,1,1,3,2,2,1,2,1,1,1,0,2,0,0
1777225797953000,1777225797953000,1777225652689000,47.397742,8.5455943,0.040813733,0.0033960629,-0.030548096,-0.0005730107,0.0002314337,-487.9991,-0.0038004674,0.009931146,-0.015649201,2.2623804e-05,-2.551949e-05,-1.4980818e-05,4.813075e-06,0.035920985,-0.028828116,0.022194812,0.015138331,0.0003615248,0.015133289,0.0050611896,2.0616964e-05,487.9991,0.010009766,1e-04,-487.9991,0.12130123,0.113674045,0.08100499,0.049551424,inf,inf,inf,inf,inf,1,1,1,1,3,2,2,1,2,1,1,1,0,2,0,0
1777225797961000,1777225797961000,1777225652689000,47.397742,8.5455943,0.040816586,0.003421242,-0.03060913,-0.0005730107,0.0002314337,-487.9991,-0.0035361818,0.009920948,-0.015589654,2.3733824e-05,-2.551949e-05,-1.4980818e-05,4.813075e-06,0.032205015,0.005786416,0.003061257,0.015144344,0.00036163523,0.015136446,0.0050611896,2.0661259e-05,487.9991,0.010009766,1e-04,-487.9991,0.121712826,0.11392701,0.08130458,0.04963435,inf,inf,inf,inf,inf,1,1,1,1,3,2,2,1,2,1,1,1,0,2,0,0
1777225797969000,1777225797969000,1777225652689000,47.397742,8.5455943,0.040819537,0.0034481685,-0.030670166,-0.0005730107,0.0002314337,-487.9991,-0.0036924584,0.009963223,-0.015827645,-0.00027379714,-2.551949e-05,-1.4980818e-05,4.813075e-06,-0.020350456,0.012148552,-0.034014225,0.01514286,0.00036174565,0.015132116,0.0050611896,2.0705585e-05,487.9991,0.010009766,1e-04,-487.9991,0.12212719,0.11412061,0.081605256,0.04970644,inf,inf,inf,inf,inf,1,1,1,1,3,2,2,1,2,1,1,1,0,2,0,0
1777225797977000,1777225797977000,1777225652689000,47.397742,8.5455943,0.040831205,0.0034571728,-0.030700684,-0.0005730107,0.0002314337,-487.9991,-0.004178647,0.010005241,-0.01612277,-0.00060304586,-2.551949e-05,-1.4980818e-05,4.813075e-06,-0.062263202,0.013782546,-0.042370982,0.015214883,0.0003618398,0.015201307,0.0050611896,2.0470012e-05,487.9991,0.010009766,1e-04,-487.9991,0.1198804,0.112793826,0.0799582,0.04925901,inf,inf,inf,inf,inf,1,1,1,1,3,2,2,1,2,1,1,1,0,2,0,0
1777225797985000,1777225797985000,1777225652689000,47.397742,8.5455943,0.04083991,0.0034683647,-0.030731201,-0.0005730107,0.0002314337,-487.9991,-0.004210991,0.009957174,-0.016041331,-0.0005586439,-2.551949e-05,-1.4980818e-05,4.813075e-06,-0.0055041504,0.0022838148,0.004881061,0.015279284,0.00036195034,0.015263021,0.0050611896,2.0514182e-05,487.9991,0.010009766,1e-04,-487.9991,0.12028237,0.113043845,0.08025749,0.049342383,inf,inf,inf,inf,inf,1,1,1,1,3,2,2,1,2,1,1,1,0,2,0,0
1777225797993000,1777225797993000,1777225652689000,47.397742,8.5455943,0.04084686,0.0034784726,-0.030761719,-0.0005730107,0.0002314337,-487.9991,-0.0041817822,0.009763114,-0.015903935,-0.00046102976,-2.551949e-05,-1.4980818e-05,4.813075e-06,0.0025388228,-0.015853787,0.0120522445,0.0152947,0.0003612388,0.0152757615,0.0050611896,2.054723e-05,487.9991,0.010009766,1e-04,-487.9991,0.12068482,0.113294706,0.08054872,0.049425628,inf,inf,inf,inf,inf,1,1,1,1,3,2,2,1,2,1,1,1,0,2,0,0
1777225798001000,1777225798001000,1777225652689000,47.397742,8.5455943,0.040852275,0.0034899362,-0.030822754,-0.0005730107,0.0002314337,-487.9991,-0.004358631,0.00982358,-0.015782058,-0.00038145809,-2.551949e-05,-1.4980818e-05,4.813075e-06,-0.023197647,0.015727807,0.010283663,0.015317008,0.00036134906,0.0152928075,0.0050611896,2.0591462e-05,487.9991,0.010009766,1e-04,-487.9991,0.12109223,0.1135464,0.08084976,0.049508743,inf,inf,inf,inf,inf,1,1,1,1,3,2,2,1,2,1,1,1,0,2,0,0
1777225798009000,1777225798009000,1777225652689000,47.397742,8.5455943,0.040855724,0.0035037692,-0.030853271,-0.0005730107,0.0002314337,-487.9991,-0.004591878,0.009876844,-0.015647113,-0.00029115082,-2.551949e-05,-1.4980818e-05,4.813075e-06,-0.030224713,0.014593403,0.012083444,0.015324352,0.00036145936,0.015294913,0.0050611896,2.0635734e-05,487.9991,0.010009766,1e-04,-487.9991,0.12150239,0.11379894,0.08115023,0.049591735,inf,inf,inf,inf,inf,1,1,1,1,3,2,2,1,2,1,1,1,0,2,0,0
1777225798017000,1777225798017000,1777225652689000,47.397742,8.5455943,0.04085648,0.0035194836,-0.030883789,-0.0005730107,0.0002314337,-487.9991,-0.004801912,0.009944633,-0.015456003,-0.0001468843,-2.551949e-05,-1.4980818e-05,4.813075e-06,-0.027298028,0.016182896,0.019265337,0.01528691,0.0003615697,0.015252245,0.0050611896,2.0680043e-05,487.9991,0.010009766,1e-04,-487.9991,0.121915326,0.11405232,0.08145062,0.049674597,inf,inf,inf,inf,inf,1,1,1,1,3,2,2,1,2,1,1,1,0,2,0,0
1777225798025000,1777225798025000,1777225652689000,47.397742,8.5455943,0.04086779,0.0035270571,-0.030914307,-0.0005730107,0.0002314337,-487.9991,-0.00476474,0.010441105,-0.015644737,-0.0003651065,-2.551949e-05,-1.4980818e-05,4.813075e-06,0.002920564,0.07102161,-0.029207671,0.015302769,0.00036166373,0.015262906,0.0050611896,2.0446596e-05,487.9991,0.010009766,1e-04,-487.9991,0.11968355,0.112670414,0.079815194,0.049218297,inf,inf,inf,inf,inf,1,1,1,1,3,2,2,1,2,1,1,1,0,2,0,0
1777225798033000,1777225798033000,1777225652689000,47.397742,8.5455943,0.040878735,0.003538281,-0.030944824,-0.0005730107,0.0002314337,-487.9991,-0.0047952225,0.010296106,-0.015562277,-0.0003148878,-2.551949e-05,-1.4980818e-05,4.813075e-06,-0.005500025,-0.009414308,0.00487687,0.015330208,0.0003617742,0.01528528,0.0050611896,2.049075e-05,487.9991,0.010009766,1e-04,-487.9991,0.12008419,0.11292002,0.080113746,0.049301732,inf,inf,inf,inf,inf,1,1,1,1,3,2,2,1,2,1,1,1,0,2,0,0
1777225798041000,1777225798041000,1777225652689000,47.397742,8.5455943,0.040887397,0.0035492966,-0.030975342,-0.0005730107,0.0002314337,-487.9991,-0.004967032,0.010049022,-0.015730208,-0.00051775604,-2.551949e-05,-1.4980818e-05,4.813075e-06,-0.023129212,-0.022413434,-0.026241874,0.015318192,0.0003618847,0.015268222,0.0050611896,2.053494e-05,487.9991,0.010009766,1e-04,-487.9991,0.12048757,0.11317047,0.080412455,0.049385034,inf,inf,inf,inf,inf,1,1,1,1,3,2,2,1,2,1,1,1,0,2,0,0
1777225798049000,1777225798049000,1777225652689000,47.397742,8.5455943,0.04089598,0.0035608634,-0.031036377,-0.0005730107,0.0002314337,-487.9991,-0.004708445,0.009903023,-0.015813647,-0.0006388158,-2.551949e-05,-1.4980818e-05,4.813075e-06,0.030708134,-0.010015006,-0.015505589,0.015306151,0.00036199525,0.015251164,0.0050611896,2.057917e-05,487.9991,0.010009766,1e-04,-487.9991,0.120893694,0.11342175,0.08071071,0.04946821,inf,inf,inf,inf,inf,1,1,1,1,3,2,2,1,2,1,1,1,0,2,0,0
1777225798057000,1777225798057000,1777225652689000,47.397742,8.5455943,0.040905,0.0035723106,-0.031066895,-0.0005730107,0.0002314337,-487.9991,-0.0048094788,0.009631961,-0.015725804,-0.00059123425,-2.551949e-05,-1.4980818e-05,4.813075e-06,-0.014283115,-0.025862094,0.0060740854,0.015312182,0.0003612841,0.015252205,0.0050611896,2.0612206e-05,487.9991,0.010009766,1e-04,-487.9991,0.12130023,0.11367389,0.08100124,0.049551263,inf,inf,inf,inf,inf,1,1,1,1,3,2,2,1,2,1,1,1,0,2,0,0
1777225798065000,1777225798065000,1777225652689000,47.397742,8.5455943,0.040911496,0.0035837702,-0.031097412,-0.0005730107,0.0002314337,-487.9991,-0.00501804,0.009425861,-0.015246497,-0.0001546946,-2.551949e-05,-1.4980818e-05,4.813075e-06,-0.027693609,-0.017962972,0.05517201,0.015284343,0.00036139443,0.015219157,0.0050611896,2.0656498e-05,487.9991,0.010009766,1e-04,-487.9991,0.121711805,0.11392685,0.08130174,0.049634185,inf,inf,inf,inf,inf,1,1,1,1,3,2,2,1,2,1,1,1,0,2,0,0
1777225798073000,1777225798073000,1777225652689000,47.397742,8.5455943,0.040916614,0.0035949724,-0.03112793,-0.0005730107,0.0002314337,-487.9991,-0.0050489926,0.0090775555,-0.014974156,7.447618e-05,-2.551949e-05,-1.4980818e-05,4.813075e-06,-0.0054606213,-0.035958607,0.029405577,0.015225576,0.0003615048,0.01515521,0.0050611896,2.070083e-05,487.9991,0.010009766,1e-04,-487.9991,0.12212615,0.11412046,0.08160178,0.049706277,inf,inf,inf,inf,inf,1,1,1,1,3,2,2,1,2,1,1,1,0,2,0,0
1777225798081000,1777225798081000,1777225652689000,47.397742,8.5455943,0.04092267,0.0036068237,-0.031158447,-0.0005730107,0.0002314337,-487.9991,-0.005235385,0.008949798,-0.015095869,-7.2351366e-05,-2.551949e-05,-1.4980818e-05,4.813075e-06,-0.025171798,-0.007896505,-0.020844394,0.015234959,0.000361599,0.015159442,0.0050611896,2.0465388e-05,487.9991,0.010009766,1e-04,-487.9991,0.11987948,0.112793684,0.07995467,0.04925885,inf,inf,inf,inf,inf,1,1,1,1,3,2,2,1,2,1,1,1,0,2,0,0
1777225798089000,1777225798089000,1777225652689000,47.397742,8.5455943,0.040925764,0.0036210122,-0.031188965,-0.0005730107,0.0002314337,-487.9991,-0.005612152,0.009060707,-0.01512296,-0.00012759148,-2.551949e-05,-1.4980818e-05,4.813075e-06,-0.04892817,0.021715188,-0.008831265,0.01520911,0.00036170942,0.015128548,0.0050611896,2.0509558e-05,487.9991,0.010009766,1e-04,-487.9991,0.120281436,0.1130437,0.080253795,0.04934222,inf,inf,inf,inf,inf,1,1,1,1,3,2,2,1,2,1,1,1,0,2,0,0
1777225798097000,1777225798097000,1777225652689000,47.397742,8.5455943,0.040925182,0.0036360708,-0.031219482,-0.0005730107,0.0002314337,-487.9991,-0.0058402475,0.008905261,-0.015012885,-4.86091e-05,-2.551949e-05,-1.4980818e-05,4.813075e-06,-0.03030797,-0.011801119,0.008494592,0.015206605,0.0003618199,0.015121066,0.0050611896,2.0553767e-05,487.9991,0.010009766,1e-04,-487.9991,0.12068612,0.11329456,0.0805527,0.04942546,inf,inf,inf,inf,inf,1,1,1,1,3,2,2,1,2,1,1,1,0,2,0,0
1777225798105000,1777225798105000,1777225652689000,47.397742,8.5455943,0.040923662,0.0036522734,-0.03125,-0.0005730107,0.0002314337,-487.9991,-0.0058291187,0.008828865,-0.014923577,6.726361e-06,-2.551949e-05,-1.4980818e-05,4.813075e-06,-0.0003680452,-0.0021345895,0.0060736197,0.015231711,0.00036193035,0.015141265,0.0050611896,2.059801e-05,487.9991,0.010009766,1e-04,-487.9991,0.12109356,0.11354626,0.08085207,0.04950858,inf,inf,inf,inf,inf,1,1,1,1,3,2,2,1,2,1,1,1,0,2,0,0
1777225798113000,1777225798113000,1777225652689000,47.397742,8.5455943,0.040920287,0.0036681392,-0.031280518,-0.0005730107,0.0002314337,-487.9991,-0.006060975,0.008593658,-0.01507011,-0.00017657643,-2.551949e-05,-1.4980818e-05,4.813075e-06,-0.030705562,-0.022192387,-0.023236496,0.015201339,0.00036204082,0.015106045,0.0050611896,2.0642288e-05,487.9991,0.010009766,1e-04,-487.9991,0.12150374,0.1137988,0.081152104,0.049591567,inf,inf,inf,inf,inf,1,1,1,1,3,2,2,1,2,1,1,1,0,2,0,0
1777225798121000,1777225798121000,1777225652689000,47.397742,8.5455943,0.040913973,0.0036859934,-0.031311035,-0.0005730107,0.0002314337,-487.9991,-0.006294266,0.008705399,-0.015059765,-0.00020566321,-2.551949e-05,-1.4980818e-05,4.813075e-06,-0.030780552,0.020794136,-0.0034621914,0.015216712,0.0003619911,0.015116632,0.0050611896,2.0684496e-05,487.9991,0.010009766,1e-04,-487.9991,0.121916294,0.11405217,0.08145128,0.04967443,inf,inf,inf,inf,inf,1,1,1,1,3,2,2,1,2,1,1,1,0,2,0,0
1777225798129000,1777225798129000,1777225652689000,47.397742,8.5455943,0.04090706,0.0037096376,-0.031311035,-0.0005730107,0.0002314337,-487.9991,-0.0064253127,0.009164811,-0.01521181,-0.00037217245,-2.551949e-05,-1.4980818e-05,4.813075e-06,-0.018025836,0.06461648,-0.02499949,0.01518562,0.0003612642,0.01507937,0.0050611896,2.043994e-05,487.9991,0.010009766,1e-04,-487.9991,0.11968228,0.11267027,0.07980707,0.04921813,inf,inf,inf,inf,inf,1,1,1,1,3,2,2,1,2,1,1,1,0,2,0,0
1777225798137000,1777225798137000,1777225652689000,47.397742,8.5455943,0.040898755,0.003736825,-0.031341553,-0.0005730107,0.0002314337,-487.9991,-0.0064245993,0.009144009,-0.015279562,-0.00045778003,-2.551949e-05,-1.4980818e-05,4.813075e-06,-0.0015169588,0.004379011,-0.01426693,0.015115878,0.00036137443,0.01500476,0.0050611896,2.0484082e-05,487.9991,0.010009766,1e-04,-487.9991,0.12008289,0.11291988,0.08010594,0.04930156,inf,inf,inf,inf,inf,1,1,1,1,3,2,2,1,2,1,1,1,0,2,0,0
1777225798145000,1777225798145000,1777225652689000,47.397742,8.5455943,0.040890984,0.0037622545,-0.03137207,-0.0005730107,0.0002314337,-487.9991,-0.006207074,0.008512589,-0.015287078,-0.00048643845,-2.551949e-05,-1.4980818e-05,4.813075e-06,0.02561672,-0.072151,-0.0065471972,0.015092976,0.0003614847,0.01497705,0.0050611896,2.0528263e-05,487.9991,0.010009766,1e-04,-487.9991,0.12048624,0.113170326,0.08040497,0.049384866,inf,inf,inf,inf,inf,1,1,1,1,3,2,2,1,2,1,1,1,0,2,0,0
1777225798153000,1777225798153000,1777225652689000,47.397742,8.5455943,0.04088244,0.0037855192,-0.03137207,-0.0005730107,0.0002314337,-487.9991,-0.0064451247,0.008388195,-0.014993753,-0.00021744752,-2.551949e-05,-1.4980818e-05,4.813075e-06,-0.031303067,-0.008961331,0.03124261,0.015092379,0.000361595,0.014971703,0.0050611896,2.057248e-05,487.9991,0.010009766,1e-04,-487.9991,0.12089232,0.11342161,0.08070423,0.049468044,inf,inf,inf,inf,inf,1,1,1,1,3,2,2,1,2,1,1,1,0,2,0,0
1777225798161000,1777225798161000,1777225652689000,47.397742,8.5455943,0.040871534,0.0038100518,-0.031402588,-0.0005730107,0.0002314337,-487.9991,-0.0066442937,0.00840431,-0.015276434,-0.00052755896,-2.551949e-05,-1.4980818e-05,4.813075e-06,-0.026411537,0.008416087,-0.040578652,0.0151097365,0.00036170526,0.01498444,0.0050611896,2.0616726e-05,487.9991,0.010009766,1e-04,-487.9991,0.12130117,0.11367374,0.08100371,0.049551092,inf,inf,inf,inf,inf,1,1,1,1,3,2,2,1,2,1,1,1,0,2,0,0
1777225798169000,1777225798169000,1777225652689000,47.397742,8.5455943,0.04085648,0.0038361263,-0.031433105,-0.0005730107,0.0002314337,-487.9991,-0.007241835,0.00849461,-0.015574486,-0.00085605634,-2.551949e-05,-1.4980818e-05,4.813075e-06,-0.07617247,0.017511003,-0.042325813,0.015087581,0.0003618156,0.014957792,0.0050611896,2.0661013e-05,487.9991,0.010009766,1e-04,-487.9991,0.12171276,0.11392671,0.08130333,0.049634013,inf,inf,inf,inf,inf,1,1,1,1,3,2,2,1,2,1,1,1,0,2,0,0
1777225798177000,1777225798177000,1777225652689000,47.397742,8.5455943,0.040838294,0.003864128,-0.031463623,-0.0005730107,0.0002314337,-487.9991,-0.0072798394,0.00860913,-0.01585982,-0.0011737354,-2.551949e-05,-1.4980818e-05,4.813075e-06,-0.006205853,0.02036324,-0.04058843,0.015055709,0.00036192595,0.014921546,0.0050611896,2.070534e-05,487.9991,0.010009766,1e-04,-487.9991,0.122127116,0.114120305,0.08160435,0.049706105,inf,inf,inf,inf,inf,1,1,1,1,3,2,2,1,2,1,1,1,0,2,0,0
1777225798185000,1777225798185000,1777225652689000,47.397742,8.5455943,0.040812895,0.0038798645,-0.03149414,-0.0005730107,0.0002314337,-487.9991,-0.00737327,0.008523992,-0.016213598,-0.0015402462,-2.551949e-05,-1.4980818e-05,4.813075e-06,-0.013041992,-0.0032256427,-0.050175,0.015026907,0.00036202063,0.014888501,0.0050611896,2.046978e-05,487.9991,0.010009766,1e-04,-487.9991,0.119880356,0.11279354,0.07995657,0.049258683,inf,inf,inf,inf,inf,1,1,1,1,3,2,2,1,2,1,1,1,0,2,0,0
1777225798193000,1777225798193000,1777225652689000,47.397742,8.5455943,0.04078591,0.0038960918,-0.03152466,-0.0005730107,0.0002314337,-487.9991,-0.0075277095,0.008418203,-0.01653536,-0.0018782658,-2.551949e-05,-1.4980818e-05,4.813075e-06,-0.02063664,-0.005978891,-0.04597846,0.014994683,0.00036130956,0.014852252,0.0050611896,2.050286e-05,487.9991,0.010009766,1e-04,-487.9991,0.1202801,0.11304356,0.080247104,0.04934205,inf,inf,inf,inf,inf,1,1,1,1,3,2,2,1,2,1,1,1,0,2,0,0
1777225798201000,1777225798201000,1777225652689000,47.397742,8.5455943,0.04075713,0.003914384,-0.031555176,-0.0005730107,0.0002314337,-487.9991,-0.007683118,0.008783279,-0.01686791,-0.0022304286,-2.551949e-05,-1.4980818e-05,4.813075e-06,-0.020735307,0.05266961,-0.047137957,0.015011715,0.00036141975,0.014864992,0.0050611896,2.0547053e-05,487.9991,0.010009766,1e-04,-487.9991,0.120684765,0.113294415,0.08054691,0.049425293,inf,inf,inf,inf,inf,1,1,1,1,3,2,2,1,2,1,1,1,0,2,0,0
1777225798209000,1777225798209000,1777225652689000,47.397742,8.5455943,0.04072784,0.0039369348,-0.031585693,-0.0005730107,0.0002314337,-487.9991,-0.0075575775,0.008992698,-0.016929317,-0.002314675,-2.551949e-05,-1.4980818e-05,4.813075e-06,0.014406599,0.03301189,-0.013061798,0.014981734,0.00036152996,0.014830838,0.0050611896,2.0591284e-05,487.9991,0.010009766,1e-04,-487.9991,0.12109216,0.11354612,0.0808464,0.049508408,inf,inf,inf,inf,inf,1,1,1,1,3,2,2,1,2,1,1,1,0,2,0,0
1777225798217000,1777225798217000,1777225652689000,47.397742,8.5455943,0.040699042,0.0039614243,-0.03161621,-0.0005730107,0.0002314337,-487.9991,-0.007579326,0.008949864,-0.016843753,-0.0022551198,-2.551949e-05,-1.4980818e-05,4.813075e-06,-0.0039817495,0.0012891311,0.005487818,0.014921842,0.0003616402,0.014766895,0.0050611896,2.0635554e-05,487.9991,0.010009766,1e-04,-487.9991,0.12150232,0.11379865,0.08114511,0.049591396,inf,inf,inf,inf,inf,1,1,1,1,3,2,2,1,2,1,1,1,0,2,0,0
1777225798225000,1777225798225000,1777225652689000,47.397742,8.5455943,0.040667925,0.003986315,-0.031677246,-0.0005730107,0.0002314337,-487.9991,-0.007933533,0.008786358,-0.016850358,-0.0022908743,-2.551949e-05,-1.4980818e-05,4.813075e-06,-0.04551568,-0.013985233,-0.005860347,0.014898083,0.0003617505,0.014739218,0.0050611896,2.0679861e-05,487.9991,0.010009766,1e-04,-487.9991,0.12191523,0.11405203,0.0814447,0.049674258,inf,inf,inf,inf,inf,1,1,1,1,3,2,2,1,2,1,1,1,0,2,0,0
1777225798233000,1777225798233000,1777225652689000,47.397742,8.5455943,0.04064047,0.003998617,-0.031677246,-0.0005730107,0.0002314337,-487.9991,-0.0077601844,0.008464809,-0.01689499,-0.002336286,-2.551949e-05,-1.4980818e-05,4.813075e-06,0.019889044,-0.032593086,-0.011910218,0.014886994,0.0003618451,0.014724331,0.0050611896,2.0446503e-05,487.9991,0.010009766,1e-04,-487.9991,0.11968353,0.11267014,0.0798095,0.049217965,inf,inf,inf,inf,inf,1,1,1,1,3,2,2,1,2,1,1,1,0,2,0,0
1777225798241000,1777225798241000,1777225652689000,47.397742,8.5455943,0.04061216,0.004009752,-0.031707764,-0.0005730107,0.0002314337,-487.9991,-0.008111832,0.008070075,-0.017046183,-0.002492337,-2.551949e-05,-1.4980818e-05,4.813075e-06,-0.045703582,-0.041954976,-0.025024636,0.014964088,0.00036195546,0.014797837,0.0050611896,2.0490652e-05,487.9991,0.010009766,1e-04,-487.9991,0.12008415,0.11291975,0.08010856,0.049301397,inf,inf,inf,inf,inf,1,1,1,1,3,2,2,1,2,1,1,1,0,2,0,0
1777225798249000,1777225798249000,1777225652689000,47.397742,8.5455943,0.04058064,0.004018148,-0.03173828,-0.0005730107,0.0002314337,-487.9991,-0.008318862,0.007524275,-0.0169741,-0.0024290502,-2.551949e-05,-1.4980818e-05,4.813075e-06,-0.027591554,-0.06104635,0.0030840745,0.014978194,0.00036206594,0.014808475,0.0050611896,2.0534842e-05,487.9991,0.010009766,1e-04,-487.9991,0.12048752,0.11317019,0.080407605,0.0493847,inf,inf,inf,inf,inf,1,1,1,1,3,2,2,1,2,1,1,1,0,2,0,0
1777225798257000,1777225798257000,1777225652689000,47.397742,8.5455943,0.04054862,0.0040262677,-0.0317688,-0.0005730107,0.0002314337,-487.9991,-0.008164392,0.0076015205,-0.016956225,-0.0024237826,-2.551949e-05,-1.4980818e-05,4.813075e-06,0.017633125,0.016631112,-0.0034980474,0.014920773,0.0003621764,0.014747706,0.0050611896,2.0579067e-05,487.9991,0.010009766,1e-04,-487.9991,0.12089363,0.11342148,0.080707066,0.049467873,inf,inf,inf,inf,inf,1,1,1,1,3,2,2,1,2,1,1,1,0,2,0,0
1777225798265000,1777225798265000,1777225652689000,47.397742,8.5455943,0.040519793,0.004037761,-0.031799316,-0.0005730107,0.0002314337,-487.9991,-0.008076301,0.0076830527,-0.016877538,-0.0023613626,-2.551949e-05,-1.4980818e-05,4.813075e-06,0.008870222,0.016767362,0.004291534,0.014899475,0.0003614649,0.01472318,0.0050611896,2.0612113e-05,487.9991,0.010009766,1e-04,-487.9991,0.12130014,0.1136736,0.08099798,0.04955092,inf,inf,inf,inf,inf,1,1,1,1,3,2,2,1,2,1,1,1,0,2,0,0
1777225798273000,1777225798273000,1777225652689000,47.397742,8.5455943,0.0404915,0.0040509007,-0.031829834,-0.0005730107,0.0002314337,-487.9991,-0.007930026,0.007723631,-0.016618412,-0.0021220075,-2.551949e-05,-1.4980818e-05,4.813075e-06,0.016192624,0.011457251,0.027028842,0.014909738,0.0003615752,0.014731612,0.0050611896,2.0656405e-05,487.9991,0.010009766,1e-04,-487.9991,0.1217117,0.11392656,0.08129802,0.049633846,inf,inf,inf,inf,inf,1,1,1,1,3,2,2,1,2,1,1,1,0,2,0,0
1777225798281000,1777225798281000,1777225652689000,47.397742,8.5455943,0.04046362,0.004066908,-0.03186035,-0.0005730107,0.0002314337,-487.9991,-0.007913125,0.008035011,-0.01675794,-0.0022846614,-2.551949e-05,-1.4980818e-05,4.813075e-06,5.93709e-05,0.04512046,-0.022612976,0.014895429,0.00036168552,0.014715583,0.0050611896,2.0700736e-05,487.9991,0.010009766,1e-04,-487.9991,0.12212603,0.11412016,0.08159884,0.049705938,inf,inf,inf,inf,inf,1,1,1,1,3,2,2,1,2,1,1,1,0,2,0,0
1777225798289000,1777225798289000,1777225652689000,47.397742,8.5455943,0.040429384,0.0040609,-0.03186035,-0.0005730107,0.0002314337,-487.9991,-0.008167272,0.008444732,-0.01690192,-0.0024265437,-2.551949e-05,-1.4980818e-05,4.813075e-06,-0.033949528,0.059342593,-0.024373641,0.014921487,0.00036178014,0.014740078,0.0050611896,2.0465326e-05,487.9991,0.010009766,1e-04,-487.9991,0.11987941,0.1127934,0.07995175,0.049258523,inf,inf,inf,inf,inf,1,1,1,1,3,2,2,1,2,1,1,1,0,2,0,0
1777225798297000,1777225798297000,1777225652689000,47.397742,8.5455943,0.04039431,0.0040592384,-0.03189087,-0.0005730107,0.0002314337,-487.9991,-0.008110969,0.008656744,-0.016976092,-0.002502743,-2.551949e-05,-1.4980818e-05,4.813075e-06,0.0049009696,0.034401234,-0.015441327,0.014910011,0.00036189047,0.014727291,0.0050611896,2.0509495e-05,487.9991,0.010009766,1e-04,-487.9991,0.120281346,0.11304341,0.08025111,0.04934189,inf,inf,inf,inf,inf,1,1,1,1,3,2,2,1,2,1,1,1,0,2,0,0
1777225798305000,1777225798305000,1777225652689000,47.397742,8.5455943,0.040359247,0.004061858,-0.031921387,-0.0005730107,0.0002314337,-487.9991,-0.008090854,0.0090304725,-0.016831433,-0.0023641167,-2.551949e-05,-1.4980818e-05,4.813075e-06,0.00042117515,0.054393563,0.012113246,0.01488134,0.00036200084,0.014697426,0.0050611896,2.0553698e-05,487.9991,0.010009766,1e-04,-487.9991,0.120686024,0.11329427,0.0805498,0.049425133,inf,inf,inf,inf,inf,1,1,1,1,3,2,2,1,2,1,1,1,0,2,0,0
1777225798313000,1777225798313000,1777225652689000,47.397742,8.5455943,0.040324297,0.004068813,-0.031951904,-0.0005730107,0.0002314337,-487.9991,-0.00800627,0.009195453,-0.016836965,-0.002379537,-2.551949e-05,-1.4980818e-05,4.813075e-06,0.008526078,0.028084496,-0.0064657065,0.01485464,0.00036211126,0.014669644,0.0050611896,2.059794e-05,487.9991,0.010009766,1e-04,-487.9991,0.12109345,0.11354596,0.080850266,0.049508248,inf,inf,inf,inf,inf,1,1,1,1,3,2,2,1,2,1,1,1,0,2,0,0
1777225798321000,1777225798321000,1777225652689000,47.397742,8.5455943,0.040290665,0.0040767654,-0.031951904,-0.0005730107,0.0002314337,-487.9991,-0.007852603,0.00892842,-0.016633675,-0.00218977,-2.551949e-05,-1.4980818e-05,4.813075e-06,0.017047066,-0.026114527,0.019826459,0.014874731,0.00036206163,0.014688764,0.0050611896,2.0640113e-05,487.9991,0.010009766,1e-04,-487.9991,0.121503234,0.1137985,0.081149176,0.049591232,inf,inf,inf,inf,inf,1,1,1,1,3,2,2,1,2,1,1,1,0,2,0,0
1777225798329000,1777225798329000,1777225652689000,47.397742,8.5455943,0.040258165,0.004085409,-0.031982422,-0.0005730107,0.0002314337,-487.9991,-0.0077946405,0.008925672,-0.016335847,-0.0019088862,-2.551949e-05,-1.4980818e-05,4.813075e-06,0.005049327,0.00674966,0.03182748,0.0148964375,0.0003613513,0.014708997,0.0050611896,2.0673133e-05,487.9991,0.010009766,1e-04,-487.9991,0.12191374,0.11405187,0.08144078,0.049674094,inf,inf,inf,inf,inf,1,1,1,1,3,2,2,1,2,1,1,1,0,2,0,0
1777225798337000,1777225798337000,1777225652689000,47.397742,8.5455943,0.04022175,0.004071273,-0.03201294,-0.0005730107,0.0002314337,-487.9991,-0.007995487,0.009035383,-0.016104905,-0.0016716544,-2.551949e-05,-1.4980818e-05,4.813075e-06,-0.027578581,0.022561084,0.022286547,0.014861958,0.00036144585,0.014672764,0.0050611896,2.0439908e-05,487.9991,0.010009766,1e-04,-487.9991,0.119682185,0.11267,0.07980641,0.049217805,inf,inf,inf,inf,inf,1,1,1,1,3,2,2,1,2,1,1,1,0,2,0,0
1777225798345000,1777225798345000,1777225652689000,47.397742,8.5455943,0.040183656,0.004060224,-0.03201294,-0.0005730107,0.0002314337,-487.9991,-0.008096498,0.009106007,-0.016086422,-0.0016508796,-2.551949e-05,-1.4980818e-05,4.813075e-06,-0.015046809,0.017420422,-0.0040582377,0.0149177965,0.00036155598,0.0147270765,0.0050611896,2.0484045e-05,487.9991,0.010009766,1e-04,-487.9991,0.12008279,0.1129196,0.08010627,0.049301237,inf,inf,inf,inf,inf,1,1,1,1,3,2,2,1,2,1,1,1,0,2,0,0
1777225798353000,1777225798353000,1777225652689000,47.397742,8.5455943,0.040145673,0.004051925,-0.03201294,-0.0005730107,0.0002314337,-487.9991,-0.007928547,0.0091393385,-0.016065039,-0.0016309705,-2.551949e-05,-1.4980818e-05,4.813075e-06,0.018625762,0.01251552,-0.0034891998,0.014917073,0.00036166617,0.014724924,0.0050611896,2.052822e-05,487.9991,0.010009766,1e-04,-487.9991,0.12048613,0.11317004,0.08040645,0.04938454,inf,inf,inf,inf,inf,1,1,1,1,3,2,2,1,2,1,1,1,0,2,0,0
1777225798361000,1777225798361000,1777225652689000,47.397742,8.5455943,0.04010874,0.004044974,-0.032043457,-0.0005730107,0.0002314337,-487.9991,-0.007861952,0.008903978,-0.016165057,-0.001736036,-2.551949e-05,-1.4980818e-05,4.813075e-06,0.006010174,-0.021315122,-0.018463934,0.0148757715,0.0003617764,0.014682286,0.0050611896,2.0572432e-05,487.9991,0.010009766,1e-04,-487.9991,0.12089222,0.11342133,0.08070633,0.04946772,inf,inf,inf,inf,inf,1,1,1,1,3,2,2,1,2,1,1,1,0,2,0,0
1777225798369000,1777225798369000,1777225652689000,47.397742,8.5455943,0.040071394,0.0040395074,-0.032043457,-0.0005730107,0.0002314337,-487.9991,-0.007981521,0.008998492,-0.015854502,-0.0014339697,-2.551949e-05,-1.4980818e-05,4.813075e-06,-0.017212437,0.019687546,0.03305217,0.014839691,0.0003618867,0.014644974,0.0050611896,2.0616684e-05,487.9991,0.010009766,1e-04,-487.9991,0.12130106,0.11367345,0.081006035,0.049550768,inf,inf,inf,inf,inf,1,1,1,1,3,2,2,1,2,1,1,1,0,2,0,0
1777225798377000,1777225798377000,1777225652689000,47.397742,8.5455943,0.040032722,0.0040368442,-0.032073975,-0.0005730107,0.0002314337,-487.9991,-0.008111914,0.009034287,-0.015516751,-0.0011080273,-2.551949e-05,-1.4980818e-05,4.813075e-06,-0.018525321,0.012123975,0.036640555,0.014837587,0.00036199705,0.014641734,0.0050611896,2.0660975e-05,487.9991,0.010009766,1e-04,-487.9991,0.12171266,0.11392642,0.08130614,0.04963369,inf,inf,inf,inf,inf,1,1,1,1,3,2,2,1,2,1,1,1,0,2,0,0
1777225798385000,1777225798385000,1777225652689000,47.397742,8.5455943,0.039992623,0.004035557,-0.032073975,-0.0005730107,0.0002314337,-487.9991,-0.008264676,0.008830415,-0.015213093,-0.00081535213,-2.551949e-05,-1.4980818e-05,4.813075e-06,-0.021283071,-0.018052824,0.032431442,0.014834328,0.00036210738,0.014637429,0.0050611896,2.0705298e-05,487.9991,0.010009766,1e-04,-487.9991,0.122127034,0.114120014,0.08160686,0.049705777,inf,inf,inf,inf,inf,1,1,1,1,3,2,2,1,2,1,1,1,0,2,0,0
1777225798393000,1777225798393000,1777225652689000,47.397742,8.5455943,0.039960038,0.0040118843,-0.032073975,-0.0005730107,0.0002314337,-487.9991,-0.00837872,0.008988454,-0.0151312975,-0.0007092599,-2.551949e-05,-1.4980818e-05,4.813075e-06,-0.017386517,0.028833015,0.0031297093,0.014769245,0.00036220258,0.014571391,0.0050611896,2.0469652e-05,487.9991,0.010009766,1e-04,-487.9991,0.11988025,0.11279326,0.07995943,0.049258366,inf,inf,inf,inf,inf,1,1,1,1,3,2,2,1,2,1,1,1,0,2,0,0
1777225798401000,1777225798401000,1777225652689000,47.397742,8.5455943,0.039927308,0.00399145,-0.032043457,-0.0005730107,0.0002314337,-487.9991,-0.008596596,0.008790629,-0.015142403,-0.0007005676,-2.551949e-05,-1.4980818e-05,4.813075e-06,-0.030707005,-0.016022418,-0.008255708,0.01472636,0.00036149126,0.01452775,0.0050611896,2.0502746e-05,487.9991,0.010009766,1e-04,-487.9991,0.120280005,0.11304328,0.08024934,0.049341734,inf,inf,inf,inf,inf,1,1,1,1,3,2,2,1,2,1,1,1,0,2,0,0
1777225798409000,1777225798409000,1777225652689000,47.397742,8.5455943,0.039893884,0.003971919,-0.032043457,-0.0005730107,0.0002314337,-487.9991,-0.008536199,0.008646071,-0.015212926,-0.00075564184,-2.551949e-05,-1.4980818e-05,4.813075e-06,0.0041562007,-0.009613896,-0.015462282,0.014772178,0.00036160133,0.014573541,0.0050611896,2.0546937e-05,487.9991,0.010009766,1e-04,-487.9991,0.12068467,0.11329413,0.08054886,0.049424976,inf,inf,inf,inf,inf,1,1,1,1,3,2,2,1,2,1,1,1,0,2,0,0
1777225798417000,1777225798417000,1777225652689000,47.397742,8.5455943,0.039859727,0.0039538816,-0.03201294,-0.0005730107,0.0002314337,-487.9991,-0.008710295,0.008591851,-0.015141249,-0.0006727184,-2.551949e-05,-1.4980818e-05,4.813075e-06,-0.02508181,0.0014391916,0.0025271436,0.01483174,0.0003617115,0.014633154,0.0050611896,2.0591166e-05,487.9991,0.010009766,1e-04,-487.9991,0.12109207,0.11354583,0.08084847,0.04950809,inf,inf,inf,inf,inf,1,1,1,1,3,2,2,1,2,1,1,1,0,2,0,0
1777225798425000,1777225798425000,1777225652689000,47.397742,8.5455943,0.039823677,0.0039395727,-0.03201294,-0.0005730107,0.0002314337,-487.9991,-0.008837564,0.008977451,-0.014888992,-0.000413307,-2.551949e-05,-1.4980818e-05,4.813075e-06,-0.019150164,0.056187443,0.025307758,0.014877386,0.00036182173,0.014678921,0.0050611896,2.063543e-05,487.9991,0.010009766,1e-04,-487.9991,0.12150224,0.11379836,0.08114791,0.04959108,inf,inf,inf,inf,inf,1,1,1,1,3,2,2,1,2,1,1,1,0,2,0,0
1777225798433000,1777225798433000,1777225652689000,47.397742,8.5455943,0.039785698,0.003929629,-0.03201294,-0.0005730107,0.0002314337,-487.9991,-0.009236713,0.00900613,-0.014916158,-0.00043727603,-2.551949e-05,-1.4980818e-05,4.813075e-06,-0.053063914,0.011342628,-0.009417999,0.014910209,0.00036193192,0.014711902,0.0050611896,2.067973e-05,487.9991,0.010009766,1e-04,-487.9991,0.12191516,0.11405173,0.081448615,0.04967394,inf,inf,inf,inf,inf,1,1,1,1,3,2,2,1,2,1,1,1,0,2,0,0
1777225798441000,1777225798441000,1777225652689000,47.397742,8.5455943,0.039761998,0.0039036549,-0.031982422,-0.0005730107,0.0002314337,-487.9991,-0.009566261,0.00865883,-0.014786553,-0.00026675803,-2.551949e-05,-1.4980818e-05,4.813075e-06,-0.045781553,-0.034374572,0.008498783,0.014876914,0.00036202688,0.0146788005,0.0050611896,2.0446274e-05,487.9991,0.010009766,1e-04,-487.9991,0.119683415,0.112669855,0.07981326,0.049217656,inf,inf,inf,inf,inf,1,1,1,1,3,2,2,1,2,1,1,1,0,2,0,0
1777225798449000,1777225798449000,1777225652689000,47.397742,8.5455943,0.03973696,0.0038773613,-0.031921387,-0.0005730107,0.0002314337,-487.9991,-0.009473051,0.0083593335,-0.014903322,-0.00034778495,-2.551949e-05,-1.4980818e-05,4.813075e-06,0.0071651014,-0.028654234,-0.022053251,0.014839214,0.00036213727,0.014641421,0.0050611896,2.0490425e-05,487.9991,0.010009766,1e-04,-487.9991,0.120084055,0.11291946,0.08011264,0.049301088,inf,inf,inf,inf,inf,1,1,1,1,3,2,2,1,2,1,1,1,0,2,0,0
1777225798457000,1777225798457000,1777225652689000,47.397742,8.5455943,0.039711375,0.0038534456,-0.03189087,-0.0005730107,0.0002314337,-487.9991,-0.009541389,0.008630666,-0.01516038,-0.00057409774,-2.551949e-05,-1.4980818e-05,4.813075e-06,-0.01292542,0.042451862,-0.039351635,0.014854842,0.00036224758,0.01465739,0.0050611896,2.0534604e-05,487.9991,0.010009766,1e-04,-487.9991,0.12048744,0.11316991,0.080411725,0.049384393,inf,inf,inf,inf,inf,1,1,1,1,3,2,2,1,2,1,1,1,0,2,0,0
1777225798465000,1777225798465000,1777225652689000,47.397742,8.5455943,0.039683335,0.003834137,-0.03189087,-0.0005730107,0.0002314337,-487.9991,-0.009921752,0.008813826,-0.015347323,-0.0007351332,-2.551949e-05,-1.4980818e-05,4.813075e-06,-0.051815614,0.031197518,-0.030356457,0.014865153,0.00036153648,0.014668064,0.0050611896,2.0567679e-05,487.9991,0.010009766,1e-04,-487.9991,0.120891266,0.11342119,0.08070223,0.049467567,inf,inf,inf,inf,inf,1,1,1,1,3,2,2,1,2,1,1,1,0,2,0,0
1777225798473000,1777225798473000,1777225652689000,47.397742,8.5455943,0.03965159,0.0038182677,-0.03186035,-0.0005730107,0.0002314337,-487.9991,-0.010209503,0.008896785,-0.015584064,-0.0009506546,-2.551949e-05,-1.4980818e-05,4.813075e-06,-0.04014,0.018431589,-0.036356967,0.014896904,0.00036164664,0.014700014,0.0050611896,2.0611926e-05,487.9991,0.010009766,1e-04,-487.9991,0.12130009,0.113673314,0.08100168,0.049550615,inf,inf,inf,inf,inf,1,1,1,1,3,2,2,1,2,1,1,1,0,2,0,0
1777225798481000,1777225798481000,1777225652689000,47.397742,8.5455943,0.039617,0.0038038369,-0.03186035,-0.0005730107,0.0002314337,-487.9991,-0.01045719,0.008655615,-0.015439678,-0.0007896363,-2.551949e-05,-1.4980818e-05,4.813075e-06,-0.035039723,-0.022319166,0.011501367,0.014907292,0.00036175683,0.0147106135,0.0050611896,2.0656207e-05,487.9991,0.010009766,1e-04,-487.9991,0.121711664,0.11392627,0.081301115,0.04963354,inf,inf,inf,inf,inf,1,1,1,1,3,2,2,1,2,1,1,1,0,2,0,0
1777225798489000,1777225798489000,1777225652689000,47.397742,8.5455943,0.03958018,0.0037921544,-0.031829834,-0.0005730107,0.0002314337,-487.9991,-0.01059706,0.008958512,-0.015425354,-0.0007601674,-2.551949e-05,-1.4980818e-05,4.813075e-06,-0.021471702,0.04546785,-0.0046347263,0.014888871,0.00036186707,0.014692435,0.0050611896,2.0700529e-05,487.9991,0.010009766,1e-04,-487.9991,0.122126006,0.11411987,0.081600934,0.04970563,inf,inf,inf,inf,inf,1,1,1,1,3,2,2,1,2,1,1,1,0,2,0,0
1777225798497000,1777225798497000,1777225652689000,47.397742,8.5455943,0.039570212,0.0037667789,-0.031799316,-0.0005730107,0.0002314337,-487.9991,-0.01060753,0.009074251,-0.015423237,-0.0007099313,-2.551949e-05,-1.4980818e-05,4.813075e-06,-0.0071715917,0.023461044,-0.007644295,0.014881075,0.00036196175,0.014684916,0.0050611896,2.0465071e-05,487.9991,0.010009766,1e-04,-487.9991,0.119879365,0.11279312,0.079953484,0.049258217,inf,inf,inf,inf,inf,1,1,1,1,3,2,2,1,2,1,1,1,0,2,0,0
1777225798505000,1777225798505000,1777225652689000,47.397742,8.5455943,0.039559454,0.0037448974,-0.03173828,-0.0005730107,0.0002314337,-487.9991,-0.010361454,0.009173525,-0.015193421,-0.00043771527,-2.551949e-05,-1.4980818e-05,4.813075e-06,0.025036518,0.021139627,0.021068843,0.014895575,0.0003620721,0.014699825,0.0050611896,2.0509238e-05,487.9991,0.010009766,1e-04,-487.9991,0.12028132,0.11304313,0.080252774,0.049341585,inf,inf,inf,inf,inf,1,1,1,1,3,2,2,1,2,1,1,1,0,2,0,0
1777225798513000,1777225798513000,1777225652689000,47.397742,8.5455943,0.039550535,0.0037258808,-0.031707764,-0.0005730107,0.0002314337,-487.9991,-0.009964433,0.009092367,-0.01539668,-0.00060408365,-2.551949e-05,-1.4980818e-05,4.813075e-06,0.04404141,-0.0016667717,-0.032822132,0.014936671,0.00036218244,0.014741363,0.0050611896,2.0553438e-05,487.9991,0.010009766,1e-04,-487.9991,0.120686,0.11329398,0.08055261,0.049424827,inf,inf,inf,inf,inf,1,1,1,1,3,2,2,1,2,1,1,1,0,2,0,0
1777225798521000,1777225798521000,1777225652689000,47.397742,8.5455943,0.039541632,0.003707602,-0.031677246,-0.0005730107,0.0002314337,-487.9991,-0.00984468,0.008805617,-0.015391112,-0.0005669694,-2.551949e-05,-1.4980818e-05,4.813075e-06,0.009593442,-0.027618013,-0.0064824703,0.014878666,0.000362133,0.014683822,0.0050611896,2.0595584e-05,487.9991,0.010009766,1e-04,-487.9991,0.12109305,0.11354567,0.080849886,0.04950794,inf,inf,inf,inf,inf,1,1,1,1,3,2,2,1,2,1,1,1,0,2,0,0
1777225798529000,1777225798529000,1777225652689000,47.397742,8.5455943,0.03953343,0.003690945,-0.03164673,-0.0005730107,0.0002314337,-487.9991,-0.009514519,0.0089019025,-0.01567459,-0.0008241382,-2.551949e-05,-1.4980818e-05,4.813075e-06,0.036024652,0.020029051,-0.042383555,0.0148345,0.0003622433,0.014639044,0.0050611896,2.0639847e-05,487.9991,0.010009766,1e-04,-487.9991,0.12150323,0.1137982,0.08114905,0.049590927,inf,inf,inf,inf,inf,1,1,1,1,3,2,2,1,2,1,1,1,0,2,0,0
1777225798537000,1777225798537000,1777225652689000,47.397742,8.5455943,0.039525922,0.0036784352,-0.03164673,-0.0005730107,0.0002314337,-487.9991,-0.009441857,0.0090238955,-0.015610145,-0.0007385188,-2.551949e-05,-1.4980818e-05,4.813075e-06,0.003931919,0.022932826,0.0013299285,0.014838279,0.00036153282,0.014642239,0.0050611896,2.0672884e-05,487.9991,0.010009766,1e-04,-487.9991,0.12191373,0.11405157,0.08143909,0.049673785,inf,inf,inf,inf,inf,1,1,1,1,3,2,2,1,2,1,1,1,0,2,0,0
1777225798545000,1777225798545000,1777225652689000,47.397742,8.5455943,0.03952376,0.0036568667,-0.03161621,-0.0005730107,0.0002314337,-487.9991,-0.0095187845,0.008712172,-0.015595286,-0.00068407896,-2.551949e-05,-1.4980818e-05,4.813075e-06,-0.0154906325,-0.030296655,-0.0058701257,0.014838304,0.00036162743,0.014642252,0.0050611896,2.0439713e-05,487.9991,0.010009766,1e-04,-487.9991,0.11968221,0.11266971,0.07980374,0.049217504,inf,inf,inf,inf,inf,1,1,1,1,3,2,2,1,2,1,1,1,0,2,0,0
1777225798553000,1777225798553000,1777225652689000,47.397742,8.5455943,0.03952101,0.003636125,-0.031585693,-0.0005730107,0.0002314337,-487.9991,-0.009329183,0.008647741,-0.015433964,-0.00048889243,-2.551949e-05,-1.4980818e-05,4.813075e-06,0.017958418,0.00037059406,0.012683216,0.014777482,0.0003617377,0.014581515,0.0050611896,2.0483858e-05,487.9991,0.010009766,1e-04,-487.9991,0.1200828,0.11291931,0.0801028,0.04930093,inf,inf,inf,inf,inf,1,1,1,1,3,2,2,1,2,1,1,1,0,2,0,0
1777225798561000,1777225798561000,1777225652689000,47.397742,8.5455943,0.039518017,0.0036177572,-0.031555176,-0.0005730107,0.0002314337,-487.9991,-0.009128222,0.008640849,-0.015284086,-0.00031065167,-2.551949e-05,-1.4980818e-05,4.813075e-06,0.019513702,0.0073253145,0.011491123,0.014715575,0.00036184784,0.014519693,0.0050611896,2.052803e-05,487.9991,0.010009766,1e-04,-487.9991,0.12048614,0.113169745,0.0804024,0.049384233,inf,inf,inf,inf,inf,1,1,1,1,3,2,2,1,2,1,1,1,0,2,0,0
1777225798569000,1777225798569000,1777225652689000,47.397742,8.5455943,0.03951615,0.0036027916,-0.03152466,-0.0005730107,0.0002314337,-487.9991,-0.008858062,0.0089453105,-0.01487735,0.00011914165,-2.551949e-05,-1.4980818e-05,4.813075e-06,0.028298644,0.0460121,0.0438299,0.014678217,0.00036195802,0.014482415,0.0050611896,2.0572239e-05,487.9991,0.010009766,1e-04,-487.9991,0.12089222,0.11342103,0.08070181,0.049467407,inf,inf,inf,inf,inf,1,1,1,1,3,2,2,1,2,1,1,1,0,2,0,0
1777225798577000,1777225798577000,1777225652689000,47.397742,8.5455943,0.03951461,0.0035907212,-0.03149414,-0.0005730107,0.0002314337,-487.9991,-0.008775271,0.00866429,-0.0141518125,0.00086258136,-2.551949e-05,-1.4980818e-05,4.813075e-06,0.0050083175,-0.027400028,0.083905175,0.014607852,0.00036206824,0.014412118,0.0050611896,2.0616484e-05,487.9991,0.010009766,1e-04,-487.9991,0.12130105,0.11367315,0.08100106,0.04955046,inf,inf,inf,inf,inf,1,1,1,1,3,2,2,1,2,1,1,1,0,2,0,0
1777225798585000,1777225798585000,1777225652689000,47.397742,8.5455943,0.039511986,0.0035782452,-0.031463623,-0.0005730107,0.0002314337,-487.9991,-0.0087064225,0.008384787,-0.0138158845,0.0012114138,-2.551949e-05,-1.4980818e-05,4.813075e-06,0.0033931304,-0.02743323,0.035422385,0.014579002,0.00036217849,0.014383322,0.0050611896,2.0660767e-05,487.9991,0.010009766,1e-04,-487.9991,0.12171263,0.11392611,0.08130119,0.049633376,inf,inf,inf,inf,inf,1,1,1,1,3,2,2,1,2,1,1,1,0,2,0,0
1777225798593000,1777225798593000,1777225652689000,47.397742,8.5455943,0.03950953,0.0035652542,-0.031433105,-0.0005730107,0.0002314337,-487.9991,-0.008600424,0.007925671,-0.014022289,0.0010150957,-2.551949e-05,-1.4980818e-05,4.813075e-06,0.008165568,-0.050103698,-0.03222888,0.014616227,0.0003622888,0.014420585,0.0050611896,2.0705089e-05,487.9991,0.010009766,1e-04,-487.9991,0.12212698,0.11411971,0.08160126,0.049705464,inf,inf,inf,inf,inf,1,1,1,1,3,2,2,1,2,1,1,1,0,2,0,0
1777225798601000,1777225798601000,1777225652689000,47.397742,8.5455943,0.039503384,0.003541664,-0.031402588,-0.0005730107,0.0002314337,-487.9991,-0.008733876,0.0077919564,-0.014196315,0.0008708153,-2.551949e-05,-1.4980818e-05,4.813075e-06,-0.022132663,-0.008488049,-0.02919603,0.014648177,0.00036156262,0.014452557,0.0050611896,2.0458529e-05,487.9991,0.010009766,1e-04,-487.9991,0.1198781,0.11279297,0.079945184,0.04925806,inf,inf,inf,inf,inf,1,1,1,1,3,2,2,1,2,1,1,1,0,2,0,0
1777225798609000,1777225798609000,1777225652689000,47.397742,8.5455943,0.039496306,0.0035203383,-0.03137207,-0.0005730107,0.0002314337,-487.9991,-0.008606957,0.007815544,-0.0146404235,0.00045102672,-2.551949e-05,-1.4980818e-05,4.813075e-06,0.01054059,0.010937241,-0.06271898,0.014638737,0.00036167275,0.014442993,0.0050611896,2.0502684e-05,487.9991,0.010009766,1e-04,-487.9991,0.12028,0.11304298,0.080245055,0.04934143,inf,inf,inf,inf,inf,1,1,1,1,3,2,2,1,2,1,1,1,0,2,0,0
1777225798617000,1777225798617000,1777225652689000,47.397742,8.5455943,0.039488386,0.0035025086,-0.031341553,-0.0005730107,0.0002314337,-487.9991,-0.008660538,0.008098616,-0.015272843,-0.00016224413,-2.551949e-05,-1.4980818e-05,4.813075e-06,-0.011902289,0.04313867,-0.08602719,0.014622862,0.0003617829,0.014426972,0.0050611896,2.0546875e-05,487.9991,0.010009766,1e-04,-487.9991,0.120684646,0.113293834,0.0805449,0.049424667,inf,inf,inf,inf,inf,1,1,1,1,3,2,2,1,2,1,1,1,0,2,0,0
1777225798625000,1777225798625000,1777225652689000,47.397742,8.5455943,0.03947979,0.0034885213,-0.031341553,-0.0005730107,0.0002314337,-487.9991,-0.008609745,0.008219979,-0.015624717,-0.0004998991,-2.551949e-05,-1.4980818e-05,4.813075e-06,0.0012645846,0.022701709,-0.05073519,0.014588916,0.0003618931,0.014392859,0.0050611896,2.0591106e-05,487.9991,0.010009766,1e-04,-487.9991,0.121092044,0.11354552,0.08084519,0.04950778,inf,inf,inf,inf,inf,1,1,1,1,3,2,2,1,2,1,1,1,0,2,0,0
1777225798633000,1777225798633000,1777225652689000,47.397742,8.5455943,0.039470308,0.003478237,-0.031311035,-0.0005730107,0.0002314337,-487.9991,-0.008586087,0.0084450515,-0.01563827,-0.0005039689,-2.551949e-05,-1.4980818e-05,4.813075e-06,-0.0020035773,0.035447795,-0.008227768,0.014639168,0.00036200334,0.014442928,0.0050611896,2.0635372e-05,487.9991,0.010009766,1e-04,-487.9991,0.1215022,0.11379806,0.08114479,0.049590763,inf,inf,inf,inf,inf,1,1,1,1,3,2,2,1,2,1,1,1,0,2,0,0
1777225798641000,1777225798641000,1777225652689000,47.397742,8.5455943,0.039459966,0.0034712332,-0.031311035,-0.0005730107,0.0002314337,-487.9991,-0.008558722,0.00856059,-0.015792469,-0.0006532664,-2.551949e-05,-1.4980818e-05,4.813075e-06,-0.0014164683,0.02154557,-0.0255974,0.014683034,0.00036211355,0.014486594,0.0050611896,2.0679676e-05,487.9991,0.010009766,1e-04,-487.9991,0.1219151,0.114051424,0.081445046,0.04967362,inf,inf,inf,inf,inf,1,1,1,1,3,2,2,1,2,1,1,1,0,2,0,0
1777225798649000,1777225798649000,1777225652689000,47.397742,8.5455943,0.039459564,0.0034498777,-0.031280518,-0.0005730107,0.0002314337,-487.9991,-0.008466553,0.008709112,-0.01577687,-0.00059877505,-2.551949e-05,-1.4980818e-05,4.813075e-06,0.005611405,0.02707732,-0.00584498,0.014731133,0.00036220893,0.014534476,0.0050611896,2.0446272e-05,487.9991,0.010009766,1e-04,-487.9991,0.11968341,0.112669565,0.07980963,0.049217343,inf,inf,inf,inf,inf,1,1,1,1,3,2,2,1,2,1,1,1,0,2,0,0
1777225798657000,1777225798657000,1777225652689000,47.397742,8.5455943,0.03945695,0.0034316904,-0.03125,-0.0005730107,0.0002314337,-487.9991,-0.008670914,0.008752701,-0.015906759,-0.00069549045,-2.551949e-05,-1.4980818e-05,4.813075e-06,-0.031316217,0.013715084,-0.023783183,0.014753589,0.0003623194,0.0145568,0.0050611896,2.0490428e-05,487.9991,0.010009766,1e-04,-487.9991,0.12008403,0.11291917,0.080108315,0.049300775,inf,inf,inf,inf,inf,1,1,1,1,3,2,2,1,2,1,1,1,0,2,0,0
1777225798665000,1777225798665000,1777225652689000,47.397742,8.5455943,0.03945297,0.003416918,-0.031219482,-0.0005730107,0.0002314337,-487.9991,-0.008579327,0.008905882,-0.015832761,-0.0005938398,-2.551949e-05,-1.4980818e-05,4.813075e-06,0.005813387,0.027181365,0.0019427388,0.014729232,0.00036242968,0.014532282,0.0050611896,2.0534604e-05,487.9991,0.010009766,1e-04,-487.9991,0.12048739,0.1131696,0.08040845,0.049384076,inf,inf,inf,inf,inf,1,1,1,1,3,2,2,1,2,1,1,1,0,2,0,0
1777225798673000,1777225798673000,1777225652689000,47.397742,8.5455943,0.039446305,0.0034037898,-0.031188965,-0.0005730107,0.0002314337,-487.9991,-0.008732392,0.008724501,-0.01575595,-0.00049466913,-2.551949e-05,-1.4980818e-05,4.813075e-06,-0.02431988,-0.014846768,0.0025276092,0.014634603,0.0003617183,0.014437475,0.0050611896,2.056769e-05,487.9991,0.010009766,1e-04,-487.9991,0.12089121,0.11342089,0.08069895,0.04946725,inf,inf,inf,inf,inf,1,1,1,1,3,2,2,1,2,1,1,1,0,2,0,0
1777225798681000,1777225798681000,1777225652689000,47.397742,8.5455943,0.03943822,0.003393967,-0.031188965,-0.0005730107,0.0002314337,-487.9991,-0.008625875,0.00896317,-0.015953735,-0.00067516306,-2.551949e-05,-1.4980818e-05,4.813075e-06,0.008257164,0.037434958,-0.031570435,0.0146029815,0.00036182842,0.01440552,0.0050611896,2.0611937e-05,487.9991,0.010009766,1e-04,-487.9991,0.12130002,0.11367301,0.08099974,0.0495503,inf,inf,inf,inf,inf,1,1,1,1,3,2,2,1,2,1,1,1,0,2,0,0
1777225798689000,1777225798689000,1777225652689000,47.397742,8.5455943,0.039429784,0.003384745,-0.031158447,-0.0005730107,0.0002314337,-487.9991,-0.008605364,0.00849702,-0.016235167,-0.0009441574,-2.551949e-05,-1.4980818e-05,4.813075e-06,-0.0023722185,-0.050888147,-0.041806135,0.014604405,0.00036193858,0.014406622,0.0050611896,2.0656218e-05,487.9991,0.010009766,1e-04,-487.9991,0.12171159,0.11392596,0.081299804,0.04963322,inf,inf,inf,inf,inf,1,1,1,1,3,2,2,1,2,1,1,1,0,2,0,0
1777225798697000,1777225798697000,1777225652689000,47.397742,8.5455943,0.03942003,0.0033760113,-0.031158447,-0.0005730107,0.0002314337,-487.9991,-0.008710211,0.008473727,-0.016096074,-0.0007953162,-2.551949e-05,-1.4980818e-05,4.813075e-06,-0.017926937,0.0042550717,0.010919291,0.0146036735,0.00036204877,0.014405567,0.0050611896,2.0700536e-05,487.9991,0.010009766,1e-04,-487.9991,0.12212593,0.11411957,0.08160025,0.049705308,inf,inf,inf,inf,inf,1,1,1,1,3,2,2,1,2,1,1,1,0,2,0,0
1777225798705000,1777225798705000,1777225652689000,47.397742,8.5455943,0.039406713,0.0033505438,-0.03112793,-0.0005730107,0.0002314337,-487.9991,-0.008835876,0.008028084,-0.016670313,-0.001333006,-2.551949e-05,-1.4980818e-05,4.813075e-06,-0.020903045,-0.04718676,-0.079502344,0.014509185,0.0003621435,0.014310747,0.0050611896,2.0465086e-05,487.9991,0.010009766,1e-04,-487.9991,0.119879305,0.112792835,0.07995262,0.049257908,inf,inf,inf,inf,inf,1,1,1,1,3,2,2,1,2,1,1,1,0,2,0,0
1777225798713000,1777225798713000,1777225652689000,47.397742,8.5455943,0.039391983,0.0033247992,-0.031097412,-0.0005730107,0.0002314337,-487.9991,-0.008785955,0.007852725,-0.017074004,-0.0017058081,-2.551949e-05,-1.4980818e-05,4.813075e-06,0.001174499,-0.01364092,-0.057938505,0.014483875,0.00036225375,0.014285191,0.0050611896,2.0509246e-05,487.9991,0.010009766,1e-04,-487.9991,0.12028125,0.11304285,0.0802516,0.049341276,inf,inf,inf,inf,inf,1,1,1,1,3,2,2,1,2,1,1,1,0,2,0,0
1777225798721000,1777225798721000,1777225652689000,47.397742,8.5455943,0.03937675,0.0033013073,-0.031097412,-0.0005730107,0.0002314337,-487.9991,-0.008822448,0.007978303,-0.016895106,-0.0015015511,-2.551949e-05,-1.4980818e-05,4.813075e-06,-0.009450388,0.023748636,0.015123281,0.014456477,0.00036220453,0.0142575335,0.0050611896,2.0551364e-05,487.9991,0.010009766,1e-04,-487.9991,0.12068555,0.11329369,0.08054854,0.049424514,inf,inf,inf,inf,inf,1,1,1,1,3,2,2,1,2,1,1,1,0,2,0,0
1777225798729000,1777225798729000,1777225652689000,47.397742,8.5455943,0.039360076,0.003280955,-0.031066895,-0.0005730107,0.0002314337,-487.9991,-0.008709519,0.007965476,-0.016866729,-0.0014532877,-2.551949e-05,-1.4980818e-05,4.813075e-06,0.009342813,0.0062173316,-0.0034603288,0.014389167,0.0003623148,0.014189389,0.0050611896,2.0595595e-05,487.9991,0.010009766,1e-04,-487.9991,0.12109297,0.11354539,0.080846526,0.04950763,inf,inf,inf,inf,inf,1,1,1,1,3,2,2,1,2,1,1,1,0,2,0,0
1777225798737000,1777225798737000,1777225652689000,47.397742,8.5455943,0.03934624,0.0032628912,-0.031066895,-0.0005730107,0.0002314337,-487.9991,-0.007981909,0.008131919,-0.016787812,-0.0013589198,-2.551949e-05,-1.4980818e-05,4.813075e-06,0.086346984,0.028465085,0.0030817462,0.014351646,0.00036160453,0.014151014,0.0050611896,2.0628651e-05,487.9991,0.010009766,1e-04,-487.9991,0.12150076,0.11379791,0.08113638,0.04959061,inf,inf,inf,inf,inf,1,1,1,1,3,2,2,1,2,1,1,1,0,2,0,0
1777225798745000,1777225798745000,1777225652689000,47.397742,8.5455943,0.039336752,0.0032483279,-0.031066895,-0.0005730107,0.0002314337,-487.9991,-0.0074931295,0.008181554,-0.016906854,-0.0014667996,-2.551949e-05,-1.4980818e-05,4.813075e-06,0.056606278,0.013644759,-0.021445097,0.014386036,0.00036171457,0.01418399,0.0050611896,2.0672946e-05,487.9991,0.010009766,1e-04,-487.9991,0.121913634,0.11405128,0.08143726,0.049673468,inf,inf,inf,inf,inf,1,1,1,1,3,2,2,1,2,1,1,1,0,2,0,0
1777225798753000,1777225798753000,1777225652689000,47.397742,8.5455943,0.039327074,0.0032270565,-0.031036377,-0.0005730107,0.0002314337,-487.9991,-0.0073093656,0.008185028,-0.0169011,-0.0014225929,-2.551949e-05,-1.4980818e-05,4.813075e-06,0.0181432,0.008712812,-0.0070543024,0.014359798,0.00036180887,0.014156328,0.0050611896,2.0439782e-05,487.9991,0.010009766,1e-04,-487.9991,0.11968212,0.11266943,0.07980263,0.049217198,inf,inf,inf,inf,inf,1,1,1,1,3,2,2,1,2,1,1,1,0,2,0,0
1777225798761000,1777225798761000,1777225652689000,47.397742,8.5455943,0.039317425,0.0032081406,-0.03100586,-0.0005730107,0.0002314337,-487.9991,-0.007298364,0.008152249,-0.016949877,-0.0014379504,-2.551949e-05,-1.4980818e-05,4.813075e-06,-0.003338292,0.0039457306,-0.013623851,0.014377179,0.000361919,0.014172342,0.0050611896,2.0483916e-05,487.9991,0.010009766,1e-04,-487.9991,0.12008271,0.11291903,0.08010294,0.049300626,inf,inf,inf,inf,inf,1,1,1,1,3,2,2,1,2,1,1,1,0,2,0,0
1777225798769000,1777225798769000,1777225652689000,47.397742,8.5455943,0.0393072,0.0031912015,-0.030975342,-0.0005730107,0.0002314337,-487.9991,-0.007247926,0.008122894,-0.0168378,-0.0012981459,-2.551949e-05,-1.4980818e-05,4.813075e-06,0.0017100064,0.0041479613,0.0067227515,0.0143604595,0.0003620291,0.014154244,0.0050611896,2.0528087e-05,487.9991,0.010009766,1e-04,-487.9991,0.12048604,0.11316947,0.08040395,0.049383927,inf,inf,inf,inf,inf,1,1,1,1,3,2,2,1,2,1,1,1,0,2,0,0
1777225798777000,1777225798777000,1777225652689000,47.397742,8.5455943,0.03929802,0.0031759206,-0.030975342,-0.0005730107,0.0002314337,-487.9991,-0.0068670274,0.007958558,-0.017029624,-0.0014676045,-2.551949e-05,-1.4980818e-05,4.813075e-06,0.043131284,-0.012947282,-0.031032132,0.014356524,0.00036213922,0.014148924,0.0050611896,2.0572294e-05,487.9991,0.010009766,1e-04,-487.9991,0.12089213,0.11342075,0.08070455,0.049467098,inf,inf,inf,inf,inf,1,1,1,1,3,2,2,1,2,1,1,1,0,2,0,0
1777225798785000,1777225798785000,1777225652689000,47.397742,8.5455943,0.039290804,0.0031615952,-0.030944824,-0.0005730107,0.0002314337,-487.9991,-0.0066732382,0.007879318,-0.017505571,-0.0019263066,-2.551949e-05,-1.4980818e-05,4.813075e-06,0.01985037,-0.00253145,-0.066321336,0.014354695,0.0003622494,0.014145704,0.0050611896,2.0616539e-05,487.9991,0.010009766,1e-04,-487.9991,0.121300966,0.11367287,0.08100455,0.049550146,inf,inf,inf,inf,inf,1,1,1,1,3,2,2,1,2,1,1,1,0,2,0,0
1777225798793000,1777225798793000,1777225652689000,47.397742,8.5455943,0.039283715,0.0031492114,-0.030944824,-0.0005730107,0.0002314337,-487.9991,-0.0066115055,0.007914361,-0.017322283,-0.0017306849,-2.551949e-05,-1.4980818e-05,4.813075e-06,0.0034502526,0.011536511,0.0163028,0.014299644,0.00036235963,0.014089252,0.0050611896,2.066082e-05,487.9991,0.010009766,1e-04,-487.9991,0.121712565,0.11392583,0.081305206,0.049633063,inf,inf,inf,inf,inf,1,1,1,1,3,2,2,1,2,1,1,1,0,2,0,0
1777225798801000,1777225798801000,1777225652689000,47.397742,8.5455943,0.039276674,0.0031403764,-0.030944824,-0.0005730107,0.0002314337,-487.9991,-0.006484207,0.0081441775,-0.017475696,-0.0018764676,-2.551949e-05,-1.4980818e-05,4.813075e-06,0.011755775,0.035679203,-0.025585758,0.014335114,0.00036246993,0.014123313,0.0050611896,2.0705142e-05,487.9991,0.010009766,1e-04,-487.9991,0.12212693,0.114119425,0.08160575,0.049705155,inf,inf,inf,inf,inf,1,1,1,1,3,2,2,1,2,1,1,1,0,2,0,0
1777225798809000,1777225798809000,1777225652689000,47.397742,8.5455943,0.039269324,0.0031257716,-0.030944824,-0.0005730107,0.0002314337,-487.9991,-0.006256285,0.008160836,-0.017021826,-0.0013920984,-2.551949e-05,-1.4980818e-05,4.813075e-06,0.023924652,0.00968681,0.04920596,0.014345016,0.00036174338,0.014131805,0.0050611896,2.0458534e-05,487.9991,0.010009766,1e-04,-487.9991,0.119877994,0.11279269,0.079949364,0.04925776,inf,inf,inf,inf,inf,1,1,1,1,3,2,2,1,2,1,1,1,0,2,0,0
1777225798817000,1777225798817000,1777225652689000,47.397742,8.5455943,0.039263066,0.0031120644,-0.030914307,-0.0005730107,0.0002314337,-487.9991,-0.006047054,0.007827253,-0.016795086,-0.0011402452,-2.551949e-05,-1.4980818e-05,4.813075e-06,0.021701055,-0.034309857,0.021054408,0.014451173,0.0003618534,0.014239375,0.0050611896,2.0502684e-05,487.9991,0.010009766,1e-04,-487.9991,0.120279916,0.113042705,0.08024846,0.049341124,inf,inf,inf,inf,inf,1,1,1,1,3,2,2,1,2,1,1,1,0,2,0,0
1777225798825000,1777225798825000,1777225652689000,47.397742,8.5455943,0.039256476,0.003100079,-0.030883789,-0.0005730107,0.0002314337,-487.9991,-0.0062593184,0.008103745,-0.016765857,-0.001091112,-2.551949e-05,-1.4980818e-05,4.813075e-06,-0.030877594,0.04173782,-0.0034016555,0.014425236,0.00036196347,0.014214841,0.0050611896,2.0546871e-05,487.9991,0.010009766,1e-04,-487.9991,0.12068458,0.11329356,0.08054772,0.04942436,inf,inf,inf,inf,inf,1,1,1,1,3,2,2,1,2,1,1,1,0,2,0,0
1777225798833000,1777225798833000,1777225652689000,47.397742,8.5455943,0.039248016,0.0030927889,-0.030883789,-0.0005730107,0.0002314337,-487.9991,-0.006320946,0.008312919,-0.01661888,-0.00092923257,-2.551949e-05,-1.4980818e-05,4.813075e-06,-0.0119428085,0.033118073,0.011543277,0.014362018,0.00036207357,0.01415302,0.0050611896,2.0591095e-05,487.9991,0.010009766,1e-04,-487.9991,0.121091984,0.11354525,0.080848075,0.049507473,inf,inf,inf,inf,inf,1,1,1,1,3,2,2,1,2,1,1,1,0,2,0,0
1777225798841000,1777225798841000,1777225652689000,47.397742,8.5455943,0.039238855,0.003085649,-0.030883789,-0.0005730107,0.0002314337,-487.9991,-0.0063194665,0.007748773,-0.016143793,-0.00044400402,-2.551949e-05,-1.4980818e-05,4.813075e-06,-0.003954687,-0.06374641,0.052776184,0.014298813,0.0003621837,0.014091212,0.0050611896,2.0635358e-05,487.9991,0.010009766,1e-04,-487.9991,0.121502146,0.11379778,0.0811489,0.049590457,inf,inf,inf,inf,inf,1,1,1,1,3,2,2,1,2,1,1,1,0,2,0,0
1777225798849000,1777225798849000,1777225652689000,47.397742,8.5455943,0.039228357,0.0030791762,-0.030853271,-0.0005730107,0.0002314337,-487.9991,-0.006447119,0.00800666,-0.016210897,-0.0005055302,-2.551949e-05,-1.4980818e-05,4.813075e-06,-0.019996388,0.038813215,-0.014784279,0.014213246,0.00036229394,0.01400704,0.0050611896,2.0679658e-05,487.9991,0.010009766,1e-04,-487.9991,0.12191507,0.11405114,0.08144886,0.049673315,inf,inf,inf,inf,inf,1,1,1,1,3,2,2,1,2,1,1,1,0,2,0,0
1777225798857000,1777225798857000,1777225652689000,47.397742,8.5455943,0.0392171,0.0030738935,-0.030853271,-0.0005730107,0.0002314337,-487.9991,-0.006287395,0.008174261,-0.015982747,-0.00025272876,-2.551949e-05,-1.4980818e-05,4.813075e-06,0.015495131,0.0280964,0.021097714,0.014249076,0.00036238862,0.014044255,0.0050611896,2.0446172e-05,487.9991,0.010009766,1e-04,-487.9991,0.11968331,0.1126693,0.07981462,0.04921705,inf,inf,inf,inf,inf,1,1,1,1,3,2,2,1,2,1,1,1,0,2,0,0
1777225798865000,1777225798865000,1777225652689000,47.397742,8.5455943,0.039205223,0.003071664,-0.030822754,-0.0005730107,0.0002314337,-487.9991,-0.0064318934,0.008255883,-0.015751544,-1.8146238e-06,-2.551949e-05,-1.4980818e-05,4.813075e-06,-0.02242426,0.017141296,0.021716112,0.014287024,0.00036249892,0.014083639,0.0050611896,2.0490319e-05,487.9991,0.010009766,1e-04,-487.9991,0.12008395,0.1129189,0.08011487,0.049300477,inf,inf,inf,inf,inf,1,1,1,1,3,2,2,1,2,1,1,1,0,2,0,0
1777225798873000,1777225798873000,1777225652689000,47.397742,8.5455943,0.039191328,0.0030726504,-0.030792236,-0.0005730107,0.0002314337,-487.9991,-0.0066714743,0.008561068,-0.015387913,0.00037679548,-2.551949e-05,-1.4980818e-05,4.813075e-06,-0.034206104,0.044883087,0.038499475,0.014201423,0.00036260922,0.0139994705,0.0050611896,2.0534497e-05,487.9991,0.010009766,1e-04,-487.9991,0.12048734,0.113169335,0.08041388,0.049383774,inf,inf,inf,inf,inf,1,1,1,1,3,2,2,1,2,1,1,1,0,2,0,0
1777225798881000,1777225798881000,1777225652689000,47.397742,8.5455943,0.039176818,0.0030771147,-0.030761719,-0.0005730107,0.0002314337,-487.9991,-0.0064215874,0.008630017,-0.015366523,0.00040858227,-2.551949e-05,-1.4980818e-05,4.813075e-06,0.027079271,0.015153674,-0.0040573063,0.014105202,0.00036271955,0.013904678,0.0050611896,2.0578713e-05,487.9991,0.010009766,1e-04,-487.9991,0.12089347,0.11342061,0.0807136,0.049466945,inf,inf,inf,inf,inf,1,1,1,1,3,2,2,1,2,1,1,1,0,2,0,0
1777225798889000,1777225798889000,1777225652689000,47.397742,8.5455943,0.03916379,0.0030846475,-0.030761719,-0.0005730107,0.0002314337,-487.9991,-0.0062750466,0.008780669,-0.015428155,0.0003529187,-2.551949e-05,-1.4980818e-05,4.813075e-06,0.014266399,0.02517303,-0.014218501,0.014097346,0.00036282992,0.013898261,0.0050611896,2.0622965e-05,487.9991,0.010009766,1e-04,-487.9991,0.12130236,0.11367273,0.08101371,0.049549997,inf,inf,inf,inf,inf,1,1,1,1,3,2,2,1,2,1,1,1,0,2,0,0
1777225798897000,1777225798897000,1777225652689000,47.397742,8.5455943,0.039150048,0.0030947174,-0.030761719,-0.0005730107,0.0002314337,-487.9991,-0.0064551276,0.008941064,-0.0152470255,0.00053576095,-2.551949e-05,-1.4980818e-05,4.813075e-06,-0.026455838,0.02620526,0.016337259,0.014026632,0.0003629404,0.013828997,0.0050611896,2.066726e-05,487.9991,0.010009766,1e-04,-487.9991,0.121713996,0.11392569,0.08131453,0.049632918,inf,inf,inf,inf,inf,1,1,1,1,3,2,2,1,2,1,1,1,0,2,0,0
1777225798905000,1777225798905000,1777225652689000,47.397742,8.5455943,0.039135586,0.0031076623,-0.030731201,-0.0005730107,0.0002314337,-487.9991,-0.006205659,0.009057498,-0.015005694,0.00077471853,-2.551949e-05,-1.4980818e-05,4.813075e-06,0.02733174,0.020527367,0.024075152,0.014061361,0.00036305079,0.013865202,0.0050611896,2.0711585e-05,487.9991,0.010009766,1e-04,-487.9991,0.122128405,0.114119284,0.0816152,0.049705006,inf,inf,inf,inf,inf,1,1,1,1,3,2,2,1,2,1,1,1,0,2,0,0
1777225798913000,1777225798913000,1777225652689000,47.397742,8.5455943,0.03913301,0.0031209725,-0.030700684,-0.0005730107,0.0002314337,-487.9991,-0.0056411847,0.009310753,-0.015142276,0.0006612921,-2.551949e-05,-1.4980818e-05,4.813075e-06,0.0659173,0.03828209,-0.024423933,0.014093917,0.00036314563,0.01389926,0.0050611896,2.0475716e-05,487.9991,0.010009766,1e-04,-487.9991,0.11988142,0.11279257,0.07996724,0.049257614,inf,inf,inf,inf,inf,1,1,1,1,3,2,2,1,2,1,1,1,0,2,0,0
1777225798921000,1777225798921000,1777225652689000,47.397742,8.5455943,0.039131552,0.0031356348,-0.030670166,-0.0005730107,0.0002314337,-487.9991,-0.005888867,0.009089927,-0.015131914,0.0006899172,-2.551949e-05,-1.4980818e-05,4.813075e-06,-0.035629127,-0.02115442,-0.0058212313,0.014130662,0.00036309587,0.013937591,0.0050611896,2.0517811e-05,487.9991,0.010009766,1e-04,-487.9991,0.12028306,0.11304258,0.080264695,0.04934098,inf,inf,inf,inf,inf,1,1,1,1,3,2,2,1,2,1,1,1,0,2,0,0
1777225798929000,1777225798929000,1777225652689000,47.397742,8.5455943,0.03912801,0.0031523444,-0.030639648,-0.0005730107,0.0002314337,-487.9991,-0.00588646,0.009393387,-0.015175939,0.0006594535,-2.551949e-05,-1.4980818e-05,4.813075e-06,-0.004252001,0.044196058,-0.012391712,0.014132329,0.00036320646,0.013939715,0.0050611896,2.0562016e-05,487.9991,0.010009766,1e-04,-487.9991,0.120687805,0.113293424,0.080565,0.049424216,inf,inf,inf,inf,inf,1,1,1,1,3,2,2,1,2,1,1,1,0,2,0,0
1777225798937000,1777225798937000,1777225652689000,47.397742,8.5455943,0.03912417,0.0031726086,-0.030639648,-0.0005730107,0.0002314337,-487.9991,-0.0059004305,0.009568666,-0.015126012,0.0007184976,-2.551949e-05,-1.4980818e-05,4.813075e-06,-0.0061825463,0.027988259,-0.0004265457,0.0141424695,0.000363317,0.013950338,0.0050611896,2.0606252e-05,487.9991,0.010009766,1e-04,-487.9991,0.12109531,0.11354511,0.08086624,0.049507327,inf,inf,inf,inf,inf,1,1,1,1,3,2,2,1,2,1,1,1,0,2,0,0
1777225798945000,1777225798945000,1777225652689000,47.397742,8.5455943,0.039118387,0.003195572,-0.03060913,-0.0005730107,0.0002314337,-487.9991,-0.006209398,0.009726543,-0.015106335,0.00074305164,-2.551949e-05,-1.4980818e-05,4.813075e-06,-0.04296398,0.025801018,-0.0039925794,0.014155786,0.00036259982,0.013964162,0.0050611896,2.0639276e-05,487.9991,0.010009766,1e-04,-487.9991,0.121503174,0.11379764,0.08115659,0.049590312,inf,inf,inf,inf,inf,1,1,1,1,3,2,2,1,2,1,1,1,0,2,0,0
1777225798953000,1777225798953000,1777225652689000,47.397742,8.5455943,0.039111666,0.0032190115,-0.03060913,-0.0005730107,0.0002314337,-487.9991,-0.005928252,0.0093994355,-0.014931109,0.00091906864,-2.551949e-05,-1.4980818e-05,4.813075e-06,0.030911954,-0.03500025,0.015659722,0.01417792,0.00036271013,0.013985475,0.0050611896,2.0683576e-05,487.9991,0.010009766,1e-04,-487.9991,0.12191614,0.114051,0.08145745,0.04967317,inf,inf,inf,inf,inf,1,1,1,1,3,2,2,1,2,1,1,1,0,2,0,0
1777225798961000,1777225798961000,1777225652689000,47.397742,8.5455943,0.039113432,0.0032319126,-0.030548096,-0.0005730107,0.0002314337,-487.9991,-0.005762194,0.00936477,-0.0151043525,0.00077309983,-2.551949e-05,-1.4980818e-05,4.813075e-06,0.015918339,0.0025965795,-0.029193236,0.014211744,0.00036280445,0.014018504,0.0050611896,2.0449948e-05,487.9991,0.010009766,1e-04,-487.9991,0.11968423,0.11266916,0.07982034,0.049216907,inf,inf,inf,inf,inf,1,1,1,1,3,2,2,1,2,1,1,1,0,2,0,0
1777225798969000,1777225798969000,1777225652689000,47.397742,8.5455943,0.039115097,0.003245932,-0.030517578,-0.0005730107,0.0002314337,-487.9991,-0.005733964,0.009146831,-0.015279516,0.0006201512,-2.551949e-05,-1.4980818e-05,4.813075e-06,-0.0011881645,-0.020516366,-0.029193236,0.014281685,0.00036291478,0.014087753,0.0050611896,2.0494088e-05,487.9991,0.010009766,1e-04,-487.9991,0.120084904,0.11291876,0.08011907,0.04930034,inf,inf,inf,inf,inf,1,1,1,1,3,2,2,1,2,1,1,1,0,2,0,0
1777225798977000,1777225798977000,1777225652689000,47.397742,8.5455943,0.03911656,0.003260507,-0.03048706,-0.0005730107,0.0002314337,-487.9991,-0.005577132,0.009165597,-0.01530323,0.0006137422,-2.551949e-05,-1.4980818e-05,4.813075e-06,0.015006849,0.008878574,-0.010028946,0.014237702,0.0003630252,0.014043033,0.0050611896,2.0538268e-05,487.9991,0.010009766,1e-04,-487.9991,0.120488316,0.1131692,0.080418415,0.049383633,inf,inf,inf,inf,inf,1,1,1,1,3,2,2,1,2,1,1,1,0,2,0,0
1777225798985000,1777225798985000,1777225652689000,47.397742,8.5455943,0.039119266,0.0032768873,-0.03048706,-0.0005730107,0.0002314337,-487.9991,-0.0053637605,0.009112588,-0.015146918,0.000782609,-2.551949e-05,-1.4980818e-05,4.813075e-06,0.022191303,-0.0002826623,0.012700911,0.014224706,0.00036313568,0.01402925,0.0050611896,2.0582484e-05,487.9991,0.010009766,1e-04,-487.9991,0.12089448,0.11342048,0.080717795,0.049466804,inf,inf,inf,inf,inf,1,1,1,1,3,2,2,1,2,1,1,1,0,2,0,0
1777225798993000,1777225798993000,1777225652689000,47.397742,8.5455943,0.039121523,0.0032945035,-0.030456543,-0.0005730107,0.0002314337,-487.9991,-0.0053694686,0.0090787485,-0.014958656,0.0009787689,-2.551949e-05,-1.4980818e-05,4.813075e-06,-0.0050811255,0.0019278448,0.016914213,0.014202106,0.0003632462,0.014005814,0.0050611896,2.062674e-05,487.9991,0.010009766,1e-04,-487.9991,0.12130339,0.1136726,0.08101662,0.049549848,inf,inf,inf,inf,inf,1,1,1,1,3,2,2,1,2,1,1,1,0,2,0,0
1777225799001000,1777225799001000,1777225652689000,47.397742,8.5455943,0.039124377,0.0033146306,-0.030426025,-0.0005730107,0.0002314337,-487.9991,-0.0051181884,0.009326937,-0.014858247,0.0010825413,-2.551949e-05,-1.4980818e-05,4.813075e-06,0.027151054,0.03699903,0.006146263,0.014223119,0.00036335672,0.01402594,0.0050611896,2.0671032e-05,487.9991,0.010009766,1e-04,-487.9991,0.12171505,0.11392555,0.08131708,0.049632765,inf,inf,inf,inf,inf,1,1,1,1,3,2,2,1,2,1,1,1,0,2,0,0
1777225799009000,1777225799009000,1777225652689000,47.397742,8.5455943,0.039127614,0.003336927,-0.030426025,-0.0005730107,0.0002314337,-487.9991,-0.0050388295,0.0092561385,-0.014557716,0.0013850576,-2.551949e-05,-1.4980818e-05,4.813075e-06,0.0058412957,-0.0029969767,0.031266823,0.014276204,0.0003626399,0.014078094,0.0050611896,2.0704036e-05,487.9991,0.010009766,1e-04,-487.9991,0.12212701,0.11411915,0.08160764,0.049704853,inf,inf,inf,inf,inf,1,1,1,1,3,2,2,1,2,1,1,1,0,2,0,0
1777225799017000,1777225799017000,1777225652689000,47.397742,8.5455943,0.03912656,0.0033419263,-0.03036499,-0.0005730107,0.0002314337,-487.9991,-0.0052652946,0.009083036,-0.0142723005,0.0016944561,-2.551949e-05,-1.4980818e-05,4.813075e-06,-0.03250084,-0.014354804,0.028291715,0.014333091,0.00036273408,0.014133523,0.0050611896,2.046844e-05,487.9991,0.010009766,1e-04,-487.9991,0.119880214,0.11279243,0.079959296,0.049257465,inf,inf,inf,inf,inf,1,1,1,1,3,2,2,1,2,1,1,1,0,2,0,0
1777225799025000,1777225799025000,1777225652689000,47.397742,8.5455943,0.039123572,0.0033485948,-0.030334473,-0.0005730107,0.0002314337,-487.9991,-0.0053270007,0.00924891,-0.01461586,0.0013695783,-2.551949e-05,-1.4980818e-05,4.813075e-06,-0.011802206,0.027806543,-0.05009444,0.014362204,0.00036284432,0.014161228,0.0050611896,2.0512593e-05,487.9991,0.010009766,1e-04,-487.9991,0.12028219,0.11304244,0.080257595,0.04934083,inf,inf,inf,inf,inf,1,1,1,1,3,2,2,1,2,1,1,1,0,2,0,0
1777225799033000,1777225799033000,1777225652689000,47.397742,8.5455943,0.0391204,0.0033591285,-0.030303955,-0.0005730107,0.0002314337,-487.9991,-0.005209494,0.0094679585,-0.01492783,0.001071133,-2.551949e-05,-1.4980818e-05,4.813075e-06,0.010696042,0.03424775,-0.045916993,0.014457372,0.00036295483,0.01425494,0.0050611896,2.0556798e-05,487.9991,0.010009766,1e-04,-487.9991,0.1206869,0.11329328,0.08055724,0.049424067,inf,inf,inf,inf,inf,1,1,1,1,3,2,2,1,2,1,1,1,0,2,0,0
1777225799041000,1777225799041000,1777225652689000,47.397742,8.5455943,0.039116662,0.0033719875,-0.030273438,-0.0005730107,0.0002314337,-487.9991,-0.005363336,0.009420107,-0.014911196,0.0010963278,-2.551949e-05,-1.4980818e-05,4.813075e-06,-0.023122173,0.00068707776,-0.0046193595,0.014548381,0.0003630652,0.014344449,0.0050611896,2.0601028e-05,487.9991,0.010009766,1e-04,-487.9991,0.12109437,0.11354497,0.080857344,0.04950718,inf,inf,inf,inf,inf,1,1,1,1,3,2,2,1,2,1,1,1,0,2,0,0
1777225799049000,1777225799049000,1777225652689000,47.397742,8.5455943,0.03911091,0.0033872237,-0.030273438,-0.0005730107,0.0002314337,-487.9991,-0.0055325544,0.009611369,-0.015336652,0.0006746384,-2.551949e-05,-1.4980818e-05,4.813075e-06,-0.024947254,0.030381152,-0.05966471,0.014596821,0.00036317555,0.014391335,0.0050611896,2.0645293e-05,487.9991,0.010009766,1e-04,-487.9991,0.12150459,0.11379749,0.08115696,0.04959016,inf,inf,inf,inf,inf,1,1,1,1,3,2,2,1,2,1,1,1,0,2,0,0
1777225799057000,1777225799057000,1777225652689000,47.397742,8.5455943,0.03910439,0.0034054932,-0.030273438,-0.0005730107,0.0002314337,-487.9991,-0.0054567163,0.009734442,-0.01546711,0.0005432762,-2.551949e-05,-1.4980818e-05,4.813075e-06,0.005778164,0.021672087,-0.02258038,0.014610187,0.00036328618,0.014403092,0.0050611896,2.0689611e-05,487.9991,0.010009766,1e-04,-487.9991,0.12191757,0.11405086,0.08145687,0.049673017,inf,inf,inf,inf,inf,1,1,1,1,3,2,2,1,2,1,1,1,0,2,0,0
1777225799065000,1777225799065000,1777225652689000,47.397742,8.5455943,0.039104108,0.0034087459,-0.03024292,-0.0005730107,0.0002314337,-487.9991,-0.0054634665,0.010083992,-0.0151199475,0.00090940815,-2.551949e-05,-1.4980818e-05,4.813075e-06,-0.0051236553,0.051524125,0.03610132,0.014589498,0.0003633807,0.014380747,0.0050611896,2.045589e-05,487.9991,0.010009766,1e-04,-487.9991,0.11968552,0.11266903,0.07982138,0.049216766,inf,inf,inf,inf,inf,1,1,1,1,3,2,2,1,2,1,1,1,0,2,0,0
1777225799073000,1777225799073000,1777225652689000,47.397742,8.5455943,0.039104007,0.00341735,-0.030212402,-0.0005730107,0.0002314337,-487.9991,-0.005320344,0.0104958555,-0.014999798,0.001043279,-2.551949e-05,-1.4980818e-05,4.813075e-06,0.01371764,0.059089832,0.007957685,0.014527214,0.00036349118,0.014316876,0.0050611896,2.0500034e-05,487.9991,0.010009766,1e-04,-487.9991,0.120086215,0.11291862,0.08012051,0.04930019,inf,inf,inf,inf,inf,1,1,1,1,3,2,2,1,2,1,1,1,0,2,0,0
1777225799081000,1777225799081000,1777225652689000,47.397742,8.5455943,0.039099596,0.003428042,-0.030181885,-0.0005730107,0.0002314337,-487.9991,-0.0052708564,0.010424158,-0.015121058,0.0009306886,-2.551949e-05,-1.4980818e-05,4.813075e-06,0.0029981285,-0.0012703321,-0.02199225,0.0145427175,0.00036277325,0.014330734,0.0050611896,2.0533107e-05,487.9991,0.010009766,1e-04,-487.9991,0.12048739,0.11316906,0.08041099,0.049383488,inf,inf,inf,inf,inf,1,1,1,1,3,2,2,1,2,1,1,1,0,2,0,0
1777225799089000,1777225799089000,1777225652689000,47.397742,8.5455943,0.039095085,0.003440441,-0.030151367,-0.0005730107,0.0002314337,-487.9991,-0.005271749,0.010472196,-0.015143404,0.0009121468,-2.551949e-05,-1.4980818e-05,4.813075e-06,-0.0032137483,0.013483549,-0.00940822,0.014497517,0.00036288355,0.014281746,0.0050611896,2.057732e-05,487.9991,0.010009766,1e-04,-487.9991,0.120893516,0.11342033,0.08071058,0.04946666,inf,inf,inf,inf,inf,1,1,1,1,3,2,2,1,2,1,1,1,0,2,0,0
1777225799097000,1777225799097000,1777225652689000,47.397742,8.5455943,0.0390877,0.0034547502,-0.030151367,-0.0005730107,0.0002314337,-487.9991,-0.005734394,0.0103055015,-0.015401811,0.00065285043,-2.551949e-05,-1.4980818e-05,4.813075e-06,-0.060850285,-0.013565869,-0.038702503,0.014470452,0.0003629939,0.014250871,0.0050611896,2.062157e-05,487.9991,0.010009766,1e-04,-487.9991,0.121302396,0.11367245,0.0810104,0.0495497,inf,inf,inf,inf,inf,1,1,1,1,3,2,2,1,2,1,1,1,0,2,0,0
1777225799105000,1777225799105000,1777225652689000,47.397742,8.5455943,0.039077196,0.0034700471,-0.030151367,-0.0005730107,0.0002314337,-487.9991,-0.005966563,0.01037122,-0.015590129,0.00045910146,-2.551949e-05,-1.4980818e-05,4.813075e-06,-0.03196298,0.0152811585,-0.029734334,0.0144871315,0.00036310425,0.0142637165,0.0050611896,2.0665857e-05,487.9991,0.010009766,1e-04,-487.9991,0.121714026,0.113925405,0.081310354,0.049632616,inf,inf,inf,inf,inf,1,1,1,1,3,2,2,1,2,1,1,1,0,2,0,0
1777225799113000,1777225799113000,1777225652689000,47.397742,8.5455943,0.039064884,0.0034882498,-0.030151367,-0.0005730107,0.0002314337,-487.9991,-0.0060193893,0.010512451,-0.015487296,0.00055514334,-2.551949e-05,-1.4980818e-05,4.813075e-06,-0.009468705,0.024517724,0.0067600044,0.01447076,0.00036321467,0.014243522,0.0050611896,2.071018e-05,487.9991,0.010009766,1e-04,-487.9991,0.12212842,0.114119,0.08161147,0.0497047,inf,inf,inf,inf,inf,1,1,1,1,3,2,2,1,2,1,1,1,0,2,0,0
1777225799121000,1777225799121000,1777225652689000,47.397742,8.5455943,0.039059564,0.0034976925,-0.03012085,-0.0005730107,0.0002314337,-487.9991,-0.005855751,0.010510837,-0.01568942,0.00036032288,-2.551949e-05,-1.4980818e-05,4.813075e-06,0.016961161,0.007870654,-0.032179054,0.014424528,0.0003631489,0.014193471,0.0050611896,2.0472347e-05,487.9991,0.010009766,1e-04,-487.9991,0.1198811,0.11279229,0.079962336,0.049257316,inf,inf,inf,inf,inf,1,1,1,1,3,2,2,1,2,1,1,1,0,2,0,0
1777225799129000,1777225799129000,1777225652689000,47.397742,8.5455943,0.039053805,0.003508159,-0.03012085,-0.0005730107,0.0002314337,-487.9991,-0.006105432,0.010417961,-0.015720554,0.00033171364,-2.551949e-05,-1.4980818e-05,4.813075e-06,-0.03461351,-0.0037720928,-0.010583083,0.014460423,0.00036325943,0.014225431,0.0050611896,2.0516512e-05,487.9991,0.010009766,1e-04,-487.9991,0.1202831,0.113042295,0.08026182,0.04934068,inf,inf,inf,inf,inf,1,1,1,1,3,2,2,1,2,1,1,1,0,2,0,0
1777225799137000,1777225799137000,1777225652689000,47.397742,8.5455943,0.039044756,0.003521812,-0.03012085,-0.0005730107,0.0002314337,-487.9991,-0.006310531,0.01064359,-0.015839515,0.0002106594,-2.551949e-05,-1.4980818e-05,4.813075e-06,-0.028958328,0.03582545,-0.021345912,0.014419624,0.00036336982,0.014180701,0.0050611896,2.0560703e-05,487.9991,0.010009766,1e-04,-487.9991,0.12068783,0.11329314,0.080561146,0.049423918,inf,inf,inf,inf,inf,1,1,1,1,3,2,2,1,2,1,1,1,0,2,0,0
1777225799145000,1777225799145000,1777225652689000,47.397742,8.5455943,0.03903519,0.003537047,-0.030090332,-0.0005730107,0.0002314337,-487.9991,-0.0062322007,0.01050891,-0.015663696,0.0003798972,-2.551949e-05,-1.4980818e-05,4.813075e-06,0.006506642,-0.00936528,0.015710944,0.014368166,0.0003626532,0.014125327,0.0050611896,2.0593758e-05,487.9991,0.010009766,1e-04,-487.9991,0.12109299,0.11354482,0.080851264,0.049507026,inf,inf,inf,inf,inf,1,1,1,1,3,2,2,1,2,1,1,1,0,2,0,0
1777225799153000,1777225799153000,1777225652689000,47.397742,8.5455943,0.03902444,0.0035542808,-0.030090332,-0.0005730107,0.0002314337,-487.9991,-0.0064165266,0.010646846,-0.0155418,0.00049085787,-2.551949e-05,-1.4980818e-05,4.813075e-06,-0.026228417,0.024504434,0.009173992,0.014342817,0.00036276344,0.014095512,0.0050611896,2.063802e-05,487.9991,0.010009766,1e-04,-487.9991,0.121503174,0.11379735,0.08115121,0.049590006,inf,inf,inf,inf,inf,1,1,1,1,3,2,2,1,2,1,1,1,0,2,0,0
1777225799161000,1777225799161000,1777225652689000,47.397742,8.5455943,0.03901251,0.0035756845,-0.03012085,-0.0005730107,0.0002314337,-487.9991,-0.0064032017,0.011038249,-0.015201303,0.0008161808,-2.551949e-05,-1.4980818e-05,4.813075e-06,-0.0014339606,0.0559848,0.036696434,0.014325962,0.00036287372,0.014074206,0.0050611896,2.0682317e-05,487.9991,0.010009766,1e-04,-487.9991,0.12191612,0.11405071,0.08145084,0.049672864,inf,inf,inf,inf,inf,1,1,1,1,3,2,2,1,2,1,1,1,0,2,0,0
1777225799169000,1777225799169000,1777225652689000,47.397742,8.5455943,0.03900564,0.003596193,-0.030090332,-0.0005730107,0.0002314337,-487.9991,-0.006596903,0.010942858,-0.014795611,0.0012259074,-2.551949e-05,-1.4980818e-05,4.813075e-06,-0.027899282,-0.0041507217,0.04387693,0.014287812,0.00036296764,0.014031613,0.0050611896,2.0448835e-05,487.9991,0.010009766,1e-04,-487.9991,0.11968428,0.11266889,0.079814315,0.04921661,inf,inf,inf,inf,inf,1,1,1,1,3,2,2,1,2,1,1,1,0,2,0,0
1777225799177000,1777225799177000,1777225652689000,47.397742,8.5455943,0.038997654,0.0036184075,-0.030059814,-0.0005730107,0.0002314337,-487.9991,-0.006489773,0.01109347,-0.014875435,0.0011452507,-2.551949e-05,-1.4980818e-05,4.813075e-06,0.00980189,0.026373358,-0.016592907,0.014348651,0.00036307797,0.014088101,0.0050611896,2.0492975e-05,487.9991,0.010009766,1e-04,-487.9991,0.12008493,0.11291848,0.08011437,0.049300034,inf,inf,inf,inf,inf,1,1,1,1,3,2,2,1,2,1,1,1,0,2,0,0
1777225799185000,1777225799185000,1777225652689000,47.397742,8.5455943,0.038989905,0.003643384,-0.030059814,-0.0005730107,0.0002314337,-487.9991,-0.0064154062,0.011109474,-0.015373615,0.00064164033,-2.551949e-05,-1.4980818e-05,4.813075e-06,0.0058054025,0.009326349,-0.06867386,0.014282735,0.00036318833,0.014017859,0.0050611896,2.053715e-05,487.9991,0.010009766,1e-04,-487.9991,0.12048833,0.11316891,0.08041471,0.04938333,inf,inf,inf,inf,inf,1,1,1,1,3,2,2,1,2,1,1,1,0,2,0,0
1777225799193000,1777225799193000,1777225652689000,47.397742,8.5455943,0.038981277,0.0036713227,-0.030059814,-0.0005730107,0.0002314337,-487.9991,-0.0064959205,0.011481045,-0.0154469535,0.0005584841,-2.551949e-05,-1.4980818e-05,4.813075e-06,-0.013464661,0.053561367,-0.015361699,0.014213577,0.0003632987,0.0139444,0.0050611896,2.0581361e-05,487.9991,0.010009766,1e-04,-487.9991,0.12089447,0.11342019,0.08071437,0.049466502,inf,inf,inf,inf,inf,1,1,1,1,3,2,2,1,2,1,1,1,0,2,0,0
1777225799201000,1777225799201000,1777225652689000,47.397742,8.5455943,0.038970806,0.0037036666,-0.030059814,-0.0005730107,0.0002314337,-487.9991,-0.0066820285,0.011642133,-0.015598521,0.0003929339,-2.551949e-05,-1.4980818e-05,4.813075e-06,-0.026574932,0.027048454,-0.024938954,0.014211497,0.00036340914,0.013938047,0.0050611896,2.0625614e-05,487.9991,0.010009766,1e-04,-487.9991,0.12130337,0.11367231,0.081015445,0.049549542,inf,inf,inf,inf,inf,1,1,1,1,3,2,2,1,2,1,1,1,0,2,0,0
1777225799209000,1777225799209000,1777225652689000,47.397742,8.5455943,0.038958445,0.0037382746,-0.030059814,-0.0005730107,0.0002314337,-487.9991,-0.0067042694,0.011680191,-0.015512465,0.00046107313,-2.551949e-05,-1.4980818e-05,4.813075e-06,-0.006008053,0.011472292,0.0049592922,0.014154017,0.00036351962,0.013876323,0.0050611896,2.0669902e-05,487.9991,0.010009766,1e-04,-487.9991,0.12171503,0.113925256,0.08131614,0.04963246,inf,inf,inf,inf,inf,1,1,1,1,3,2,2,1,2,1,1,1,0,2,0,0
1777225799217000,1777225799217000,1777225652689000,47.397742,8.5455943,0.0389462,0.003776678,-0.030090332,-0.0005730107,0.0002314337,-487.9991,-0.0068225507,0.011593573,-0.015862862,9.195518e-05,-2.551949e-05,-1.4980818e-05,4.813075e-06,-0.018078435,-0.0048065963,-0.049502585,0.014127354,0.0003628026,0.0138454465,0.0050611896,2.0702915e-05,487.9991,0.010009766,1e-04,-487.9991,0.12212699,0.11411885,0.08160633,0.049704544,inf,inf,inf,inf,inf,1,1,1,1,3,2,2,1,2,1,1,1,0,2,0,0
1777225799225000,1777225799225000,1777225652689000,47.397742,8.5455943,0.038938567,0.0038035517,-0.030059814,-0.0005730107,0.0002314337,-487.9991,-0.006887974,0.011737513,-0.015824843,0.00013783993,-2.551949e-05,-1.4980818e-05,4.813075e-06,-0.012067079,0.025379172,-0.0022086313,0.01413745,0.00036289633,0.013855019,0.0050611896,2.0467367e-05,487.9991,0.010009766,1e-04,-487.9991,0.1198802,0.11279215,0.07995844,0.049257167,inf,inf,inf,inf,inf,1,1,1,1,3,2,2,1,2,1,1,1,0,2,0,0
1777225799233000,1777225799233000,1777225652689000,47.397742,8.5455943,0.03892926,0.0038324783,-0.030059814,-0.0005730107,0.0002314337,-487.9991,-0.007199204,0.011567137,-0.015620857,0.00034486578,-2.551949e-05,-1.4980818e-05,4.813075e-06,-0.04269065,-0.014118541,0.01876056,0.0141250575,0.00036300663,0.013842238,0.0050611896,2.0511525e-05,487.9991,0.010009766,1e-04,-487.9991,0.12028217,0.11304215,0.080258094,0.049340528,inf,inf,inf,inf,inf,1,1,1,1,3,2,2,1,2,1,1,1,0,2,0,0
1777225799241000,1777225799241000,1777225652689000,47.397742,8.5455943,0.03891687,0.003861697,-0.030059814,-0.0005730107,0.0002314337,-487.9991,-0.007270627,0.011401734,-0.015457172,0.00050696125,-2.551949e-05,-1.4980818e-05,4.813075e-06,-0.012614131,-0.013703163,0.01393957,0.0140785165,0.000363117,0.013795342,0.0050611896,2.0555723e-05,487.9991,0.010009766,1e-04,-487.9991,0.120686896,0.11329299,0.08055775,0.04942376,inf,inf,inf,inf,inf,1,1,1,1,3,2,2,1,2,1,1,1,0,2,0,0
1777225799249000,1777225799249000,1777225652689000,47.397742,8.5455943,0.038904797,0.003890401,-0.030059814,-0.0005730107,0.0002314337,-487.9991,-0.00711548,0.011002485,-0.01547273,0.00048539625,-2.551949e-05,-1.4980818e-05,4.813075e-06,0.015804915,-0.04313172,-0.008255242,0.014020119,0.0003632274,0.01373668,0.0050611896,2.0599955e-05,487.9991,0.010009766,1e-04,-487.9991,0.12109436,0.11354468,0.080858104,0.049506865,inf,inf,inf,inf,inf,1,1,1,1,3,2,2,1,2,1,1,1,0,2,0,0
1777225799257000,1777225799257000,1777225652689000,47.397742,8.5455943,0.03888975,0.0039190925,-0.030029297,-0.0005730107,0.0002314337,-487.9991,-0.0076750033,0.010998565,-0.015364518,0.00058340724,-2.551949e-05,-1.4980818e-05,4.813075e-06,-0.07344098,0.0060861595,0.007420312,0.013988315,0.0003633377,0.0137046985,0.0050611896,2.0644218e-05,487.9991,0.010009766,1e-04,-487.9991,0.12150458,0.1137972,0.08115865,0.049589846,inf,inf,inf,inf,inf,1,1,1,1,3,2,2,1,2,1,1,1,0,2,0,0
1777225799265000,1777225799265000,1777225652689000,47.397742,8.5455943,0.038870167,0.003948393,-0.030059814,-0.0005730107,0.0002314337,-487.9991,-0.008082948,0.01062381,-0.0152151855,0.0007185186,-2.551949e-05,-1.4980818e-05,4.813075e-06,-0.054405384,-0.040461,0.012759118,0.013971365,0.00036344805,0.013687664,0.0050611896,2.068852e-05,487.9991,0.010009766,1e-04,-487.9991,0.12191757,0.11405056,0.08145881,0.0496727,inf,inf,inf,inf,inf,1,1,1,1,3,2,2,1,2,1,1,1,0,2,0,0
1777225799273000,1777225799273000,1777225652689000,47.397742,8.5455943,0.038865175,0.0039499435,-0.030029297,-0.0005730107,0.0002314337,-487.9991,-0.008190378,0.010559789,-0.015427338,0.00052671373,-2.551949e-05,-1.4980818e-05,4.813075e-06,-0.018031752,0.0004570074,-0.03393413,0.014093873,0.00036354252,0.013810174,0.0050611896,2.0454785e-05,487.9991,0.010009766,1e-04,-487.9991,0.11968551,0.11266874,0.07982321,0.049216453,inf,inf,inf,inf,inf,1,1,1,1,3,2,2,1,2,1,1,1,0,2,0,0
1777225799281000,1777225799281000,1777225652689000,47.397742,8.5455943,0.038858265,0.003953695,-0.02999878,-0.0005730107,0.0002314337,-487.9991,-0.008342783,0.010437958,-0.015684444,0.00028483302,-2.551949e-05,-1.4980818e-05,4.813075e-06,-0.023593139,-0.007046111,-0.039317176,0.014144725,0.00036282523,0.013861268,0.0050611896,2.0487892e-05,487.9991,0.010009766,1e-04,-487.9991,0.120084,0.11291833,0.08011336,0.049299877,inf,inf,inf,inf,inf,1,1,1,1,3,2,2,1,2,1,1,1,0,2,0,0
1777225799289000,1777225799289000,1777225652689000,47.397742,8.5455943,0.038850885,0.0039597666,-0.029968262,-0.0005730107,0.0002314337,-487.9991,-0.007977602,0.010616712,-0.015455232,0.00052435487,-2.551949e-05,-1.4980818e-05,4.813075e-06,0.041226532,0.030295849,0.021702142,0.014213452,0.0003629354,0.01393051,0.0050611896,2.0532063e-05,487.9991,0.010009766,1e-04,-487.9991,0.120487384,0.11316877,0.08041303,0.049383175,inf,inf,inf,inf,inf,1,1,1,1,3,2,2,1,2,1,1,1,0,2,0,0
1777225799297000,1777225799297000,1777225652689000,47.397742,8.5455943,0.03884562,0.003968324,-0.029968262,-0.0005730107,0.0002314337,-487.9991,-0.0076574096,0.010527571,-0.015160933,0.0008242214,-2.551949e-05,-1.4980818e-05,4.813075e-06,0.035719667,-0.003421117,0.030060763,0.014208574,0.00036304563,0.013926241,0.0050611896,2.0576275e-05,487.9991,0.010009766,1e-04,-487.9991,0.12089352,0.11342004,0.08071233,0.049466345,inf,inf,inf,inf,inf,1,1,1,1,3,2,2,1,2,1,1,1,0,2,0,0
1777225799305000,1777225799305000,1777225652689000,47.397742,8.5455943,0.03884117,0.003978243,-0.029937744,-0.0005730107,0.0002314337,-487.9991,-0.0074064313,0.010412829,-0.015040705,0.00094541203,-2.551949e-05,-1.4980818e-05,4.813075e-06,0.027183557,-0.006842478,0.008518341,0.0142238615,0.0003631561,0.013942228,0.0050611896,2.0620535e-05,487.9991,0.010009766,1e-04,-487.9991,0.1213024,0.11367215,0.08101194,0.049549386,inf,inf,inf,inf,inf,1,1,1,1,3,2,2,1,2,1,1,1,0,2,0,0
1777225799313000,1777225799313000,1777225652689000,47.397742,8.5455943,0.038836922,0.0039886055,-0.029937744,-0.0005730107,0.0002314337,-487.9991,-0.007374238,0.010114022,-0.015075359,0.00090722914,-2.551949e-05,-1.4980818e-05,4.813075e-06,-4.9609524e-05,-0.030064898,-0.010631512,0.014228313,0.00036326644,0.013947485,0.0050611896,2.066482e-05,487.9991,0.010009766,1e-04,-487.9991,0.12171404,0.1139251,0.081311345,0.049632303,inf,inf,inf,inf,inf,1,1,1,1,3,2,2,1,2,1,1,1,0,2,0,0
1777225799321000,1777225799321000,1777225652689000,47.397742,8.5455943,0.03883178,0.0039996915,-0.029907227,-0.0005730107,0.0002314337,-487.9991,-0.0073792823,0.009914366,-0.01505381,0.00092183164,-2.551949e-05,-1.4980818e-05,4.813075e-06,-0.0046701934,-0.018039579,-0.003433786,0.014259333,0.00036321708,0.013979415,0.0050611896,2.0707032e-05,487.9991,0.010009766,1e-04,-487.9991,0.12212803,0.114118695,0.08160905,0.049704384,inf,inf,inf,inf,inf,1,1,1,1,3,2,2,1,2,1,1,1,0,2,0,0
1777225799329000,1777225799329000,1777225652689000,47.397742,8.5455943,0.038834054,0.0039827037,-0.029876709,-0.0005730107,0.0002314337,-487.9991,-0.007215165,0.009415291,-0.014463623,0.0015271333,-2.551949e-05,-1.4980818e-05,4.813075e-06,0.015779782,-0.053348515,0.06655091,0.014284089,0.0003633112,0.014004965,0.0050611896,2.0471347e-05,487.9991,0.010009766,1e-04,-487.9991,0.11988112,0.112792,0.079961486,0.04925701,inf,inf,inf,inf,inf,1,1,1,1,3,2,2,1,2,1,1,1,0,2,0,0
1777225799337000,1777225799337000,1777225652689000,47.397742,8.5455943,0.03883554,0.0039656833,-0.029846191,-0.0005730107,0.0002314337,-487.9991,-0.007311091,0.009365974,-0.014061419,0.0019393605,-2.551949e-05,-1.4980818e-05,4.813075e-06,-0.016608885,0.0026172681,0.04328368,0.014225489,0.0003634215,0.013947419,0.0050611896,2.0515501e-05,487.9991,0.010009766,1e-04,-487.9991,0.12028312,0.113042004,0.08026214,0.04934037,inf,inf,inf,inf,inf,1,1,1,1,3,2,2,1,2,1,1,1,0,2,0,0
1777225799345000,1777225799345000,1777225652689000,47.397742,8.5455943,0.0388354,0.0039514974,-0.029846191,-0.0005730107,0.0002314337,-487.9991,-0.007223347,0.009403796,-0.013967534,0.0020384388,-2.551949e-05,-1.4980818e-05,4.813075e-06,0.0064666155,0.013262334,0.00496814,0.0142029645,0.00036353187,0.013926051,0.0050611896,2.0559692e-05,487.9991,0.010009766,1e-04,-487.9991,0.12068786,0.11329285,0.08056193,0.049423605,inf,inf,inf,inf,inf,1,1,1,1,3,2,2,1,2,1,1,1,0,2,0,0
1777225799353000,1777225799353000,1777225652689000,47.397742,8.5455943,0.038835857,0.0039404985,-0.029815674,-0.0005730107,0.0002314337,-487.9991,-0.0072237104,0.009290678,-0.013727043,0.0022794986,-2.551949e-05,-1.4980818e-05,4.813075e-06,-0.0046279896,-0.0060689286,0.023511237,0.014219767,0.00036281493,0.013944113,0.0050611896,2.0592754e-05,487.9991,0.010009766,1e-04,-487.9991,0.12109302,0.11354453,0.08085284,0.04950671,inf,inf,inf,inf,inf,1,1,1,1,3,2,2,1,2,1,1,1,0,2,0,0
1777225799361000,1777225799361000,1777225652689000,47.397742,8.5455943,0.03883409,0.003930609,-0.029785156,-0.0005730107,0.0002314337,-487.9991,-0.007429898,0.009099361,-0.0136414,0.0023612669,-2.551949e-05,-1.4980818e-05,4.813075e-06,-0.03024371,-0.016077666,0.0043665054,0.014270102,0.00036292506,0.013997358,0.0050611896,2.063701e-05,487.9991,0.010009766,1e-04,-487.9991,0.12150321,0.11379705,0.0811527,0.04958969,inf,inf,inf,inf,inf,1,1,1,1,3,2,2,1,2,1,1,1,0,2,0,0
1777225799369000,1777225799369000,1777225652689000,47.397742,8.5455943,0.03883051,0.00392173,-0.029785156,-0.0005730107,0.0002314337,-487.9991,-0.0073908158,0.009034593,-0.013863908,0.002130642,-2.551949e-05,-1.4980818e-05,4.813075e-06,0.0005314357,-0.00048354873,-0.03394717,0.014355517,0.00036303527,0.0140857855,0.0050611896,2.0681306e-05,487.9991,0.010009766,1e-04,-487.9991,0.12191616,0.11405042,0.08145394,0.049672544,inf,inf,inf,inf,inf,1,1,1,1,3,2,2,1,2,1,1,1,0,2,0,0
1777225799377000,1777225799377000,1777225652689000,47.397742,8.5455943,0.038823456,0.0038805855,-0.029724121,-0.0005730107,0.0002314337,-487.9991,-0.007514101,0.008921452,-0.014018472,0.0019963272,-2.551949e-05,-1.4980818e-05,4.813075e-06,-0.019952392,-0.004034353,-0.02675224,0.014385416,0.00036312922,0.0141188,0.0050611896,2.0447762e-05,487.9991,0.010009766,1e-04,-487.9991,0.11968427,0.1126686,0.07981791,0.0492163,inf,inf,inf,inf,inf,1,1,1,1,3,2,2,1,2,1,1,1,0,2,0,0
1777225799385000,1777225799385000,1777225652689000,47.397742,8.5455943,0.03881415,0.0038400923,-0.029693604,-0.0005730107,0.0002314337,-487.9991,-0.007590804,0.008470194,-0.013969361,0.0020605458,-2.551949e-05,-1.4980818e-05,4.813075e-06,-0.014013892,-0.046582285,-0.0010561197,0.014395888,0.00036323952,0.014132563,0.0050611896,2.0491902e-05,487.9991,0.010009766,1e-04,-487.9991,0.12008494,0.1129182,0.080116466,0.049299724,inf,inf,inf,inf,inf,1,1,1,1,3,2,2,1,2,1,1,1,0,2,0,0
1777225799393000,1777225799393000,1777225652689000,47.397742,8.5455943,0.038804624,0.0037993751,-0.029663086,-0.0005730107,0.0002314337,-487.9991,-0.0074332026,0.008231085,-0.013854996,0.002185017,-2.551949e-05,-1.4980818e-05,4.813075e-06,0.015391055,-0.020343374,0.0073304395,0.014387219,0.00036334986,0.014127191,0.0050611896,2.0536077e-05,487.9991,0.010009766,1e-04,-487.9991,0.120488346,0.113168634,0.080415495,0.04938302,inf,inf,inf,inf,inf,1,1,1,1,3,2,2,1,2,1,1,1,0,2,0,0
1777225799401000,1777225799401000,1777225652689000,47.397742,8.5455943,0.038795367,0.0037610123,-0.029632568,-0.0005730107,0.0002314337,-487.9991,-0.007225216,0.008274043,-0.013641629,0.0024036556,-2.551949e-05,-1.4980818e-05,4.813075e-06,0.021809533,0.0146523295,0.019928904,0.014401986,0.00036346022,0.01414525,0.0050611896,2.0580292e-05,487.9991,0.010009766,1e-04,-487.9991,0.12089449,0.113419905,0.08071534,0.049466185,inf,inf,inf,inf,inf,1,1,1,1,3,2,2,1,2,1,1,1,0,2,0,0
1777225799409000,1777225799409000,1777225652689000,47.397742,8.5455943,0.03878559,0.00372659,-0.02960205,-0.0005730107,0.0002314337,-487.9991,-0.007445488,0.008542298,-0.013592338,0.0024535493,-2.551949e-05,-1.4980818e-05,4.813075e-06,-0.031613685,0.0425538,-0.00036368144,0.014412513,0.00036357064,0.014159063,0.0050611896,2.0624542e-05,487.9991,0.010009766,1e-04,-487.9991,0.121303394,0.11367201,0.081014864,0.049549222,inf,inf,inf,inf,inf,1,1,1,1,3,2,2,1,2,1,1,1,0,2,0,0
1777225799417000,1777225799417000,1777225652689000,47.397742,8.5455943,0.038773894,0.0036979662,-0.029571533,-0.0005730107,0.0002314337,-487.9991,-0.00750723,0.009038153,-0.013717029,0.0023249334,-2.551949e-05,-1.4980818e-05,4.813075e-06,-0.011808893,0.07076107,-0.02190098,0.014401777,0.00036285404,0.01415161,0.0050611896,2.0657593e-05,487.9991,0.010009766,1e-04,-487.9991,0.12171264,0.113924965,0.08130517,0.049632136,inf,inf,inf,inf,inf,1,1,1,1,3,2,2,1,2,1,1,1,0,2,0,0
1777225799425000,1777225799425000,1777225652689000,47.397742,8.5455943,0.03876211,0.0036748203,-0.029571533,-0.0005730107,0.0002314337,-487.9991,-0.0072416253,0.009185016,-0.01402056,0.0020151273,-2.551949e-05,-1.4980818e-05,4.813075e-06,0.029211957,0.026889266,-0.044109296,0.0143955555,0.00036296417,0.014148423,0.0050611896,2.0701904e-05,487.9991,0.010009766,1e-04,-487.9991,0.122127004,0.11411855,0.08160621,0.049704216,inf,inf,inf,inf,inf,1,1,1,1,3,2,2,1,2,1,1,1,0,2,0,0
1777225799433000,1777225799433000,1777225652689000,47.397742,8.5455943,0.038751476,0.0036297485,-0.029510498,-0.0005730107,0.0002314337,-487.9991,-0.007014442,0.009232203,-0.013745726,0.002304889,-2.551949e-05,-1.4980818e-05,4.813075e-06,0.023969818,0.01628736,0.02711266,0.014329668,0.00036305835,0.014085554,0.0050611896,2.0466328e-05,487.9991,0.010009766,1e-04,-487.9991,0.11988021,0.11279187,0.07995914,0.049256846,inf,inf,inf,inf,inf,1,1,1,1,3,2,2,1,2,1,1,1,0,2,0,0
1777225799441000,1777225799441000,1777225652689000,47.397742,8.5455943,0.03874138,0.0035863947,-0.02947998,-0.0005730107,0.0002314337,-487.9991,-0.0067913705,0.008816408,-0.013703025,0.0023575234,-2.551949e-05,-1.4980818e-05,4.813075e-06,0.023567269,-0.041880496,-0.0016726552,0.01425409,0.00036316854,0.014013113,0.0050611896,2.051048e-05,487.9991,0.010009766,1e-04,-487.9991,0.12028218,0.11304187,0.08025802,0.04934021,inf,inf,inf,inf,inf,1,1,1,1,3,2,2,1,2,1,1,1,0,2,0,0
1777225799449000,1777225799449000,1777225652689000,47.397742,8.5455943,0.038733345,0.003543619,-0.029449463,-0.0005730107,0.0002314337,-487.9991,-0.006412293,0.008643168,-0.013681159,0.0023844445,-2.551949e-05,-1.4980818e-05,4.813075e-06,0.043177776,-0.011845499,-0.0040526497,0.014199854,0.00036327878,0.013961994,0.0050611896,2.0554671e-05,487.9991,0.010009766,1e-04,-487.9991,0.1206869,0.11329272,0.08055698,0.049423445,inf,inf,inf,inf,inf,1,1,1,1,3,2,2,1,2,1,1,1,0,2,0,0
1777225799457000,1777225799457000,1777225652689000,47.397742,8.5455943,0.03872667,0.0035014218,-0.029418945,-0.0005730107,0.0002314337,-487.9991,-0.0062221373,0.008174048,-0.013642073,0.0024238378,-2.551949e-05,-1.4980818e-05,4.813075e-06,0.019667374,-0.049101267,-0.0016819685,0.014208475,0.000363389,0.013973705,0.0050611896,2.0598894e-05,487.9991,0.010009766,1e-04,-487.9991,0.12109437,0.11354439,0.08085664,0.049506553,inf,inf,inf,inf,inf,1,1,1,1,3,2,2,1,2,1,1,1,0,2,0,0
1777225799465000,1777225799465000,1777225652689000,47.397742,8.5455943,0.03872047,0.0034588466,-0.029418945,-0.0005730107,0.0002314337,-487.9991,-0.006106524,0.007939327,-0.013350603,0.0027110314,-2.551949e-05,-1.4980818e-05,4.813075e-06,0.010459269,-0.020068659,0.030077526,0.014154333,0.0003634993,0.013922622,0.0050611896,2.064316e-05,487.9991,0.010009766,1e-04,-487.9991,0.12150458,0.11379691,0.08115689,0.049589533,inf,inf,inf,inf,inf,1,1,1,1,3,2,2,1,2,1,1,1,0,2,0,0
1777225799473000,1777225799473000,1777225652689000,47.397742,8.5455943,0.03871307,0.0034196896,-0.029388428,-0.0005730107,0.0002314337,-487.9991,-0.006301675,0.008236824,-0.013342515,0.0027104362,-2.551949e-05,-1.4980818e-05,4.813075e-06,-0.028283963,0.046194933,-0.005139503,0.014112998,0.00036360967,0.013884313,0.0050611896,2.0687461e-05,487.9991,0.010009766,1e-04,-487.9991,0.12191756,0.11405027,0.08145726,0.049672388,inf,inf,inf,inf,inf,1,1,1,1,3,2,2,1,2,1,1,1,0,2,0,0
1777225799481000,1777225799481000,1777225652689000,47.397742,8.5455943,0.038713578,0.0033611523,-0.029327393,-0.0005730107,0.0002314337,-487.9991,-0.0062466944,0.00822729,-0.013506229,0.0025681057,-2.551949e-05,-1.4980818e-05,4.813075e-06,0.0021448676,0.009454487,-0.027945729,0.014105725,0.0003637042,0.013880031,0.0050611896,2.0453788e-05,487.9991,0.010009766,1e-04,-487.9991,0.119685546,0.11266846,0.07981978,0.049216144,inf,inf,inf,inf,inf,1,1,1,1,3,2,2,1,2,1,1,1,0,2,0,0
1777225799489000,1777225799489000,1777225652689000,47.397742,8.5455943,0.038710933,0.0033050305,-0.029296875,-0.0005730107,0.0002314337,-487.9991,-0.006284583,0.008345429,-0.013623748,0.002467371,-2.551949e-05,-1.4980818e-05,4.813075e-06,-0.0089575285,0.025404254,-0.02193311,0.014134585,0.00036298673,0.013911976,0.0050611896,2.0486914e-05,487.9991,0.010009766,1e-04,-487.9991,0.12008404,0.11291806,0.080108866,0.049299568,inf,inf,inf,inf,inf,1,1,1,1,3,2,2,1,2,1,1,1,0,2,0,0
1777225799497000,1777225799497000,1777225652689000,47.397742,8.5455943,0.038707644,0.0032528099,-0.029266357,-0.0005730107,0.0002314337,-487.9991,-0.0062909,0.0085067805,-0.0138341,0.0022693085,-2.551949e-05,-1.4980818e-05,4.813075e-06,-0.0048977905,0.030514471,-0.033305954,0.014123122,0.00036309694,0.013901338,0.0050611896,2.0531088e-05,487.9991,0.010009766,1e-04,-487.9991,0.1204874,0.113168485,0.0804081,0.04938286,inf,inf,inf,inf,inf,1,1,1,1,3,2,2,1,2,1,1,1,0,2,0,0
1777225799505000,1777225799505000,1777225652689000,47.397742,8.5455943,0.038703125,0.0032059187,-0.02923584,-0.0005730107,0.0002314337,-487.9991,-0.0063293483,0.008766892,-0.013993489,0.0021178394,-2.551949e-05,-1.4980818e-05,4.813075e-06,-0.008805365,0.042572185,-0.026710795,0.014121276,0.0003632072,0.013900275,0.0050611896,2.0575299e-05,487.9991,0.010009766,1e-04,-487.9991,0.12089352,0.113419764,0.080707185,0.04946603,inf,inf,inf,inf,inf,1,1,1,1,3,2,2,1,2,1,1,1,0,2,0,0
1777225799513000,1777225799513000,1777225652689000,47.397742,8.5455943,0.038696226,0.003163636,-0.029205322,-0.0005730107,0.0002314337,-487.9991,-0.006698875,0.0089203315,-0.013986819,0.0021281776,-2.551949e-05,-1.4980818e-05,4.813075e-06,-0.050087463,0.02895338,-0.0057355496,0.014112034,0.0003633175,0.013891767,0.0050611896,2.0619545e-05,487.9991,0.010009766,1e-04,-487.9991,0.12130239,0.11367187,0.08100686,0.04954907,inf,inf,inf,inf,inf,1,1,1,1,3,2,2,1,2,1,1,1,0,2,0,0
1777225799521000,1777225799521000,1777225652689000,47.397742,8.5455943,0.03868651,0.0031234215,-0.029174805,-0.0005730107,0.0002314337,-487.9991,-0.0066455957,0.008949669,-0.013762039,0.0023525523,-2.551949e-05,-1.4980818e-05,4.813075e-06,0.002925446,0.0134857865,0.021740327,0.01414226,0.00036326837,0.013922643,0.0050611896,2.0661726e-05,487.9991,0.010009766,1e-04,-487.9991,0.12171361,0.113924816,0.081305996,0.049631983,inf,inf,inf,inf,inf,1,1,1,1,3,2,2,1,2,1,1,1,0,2,0,0
1777225799529000,1777225799529000,1777225652689000,47.397742,8.5455943,0.0386773,0.0030869152,-0.029144287,-0.0005730107,0.0002314337,-487.9991,-0.006480986,0.009119479,-0.0134096,0.002700716,-2.551949e-05,-1.4980818e-05,4.813075e-06,0.016937256,0.030767484,0.037903428,0.014138281,0.0003633786,0.013919467,0.0050611896,2.0706038e-05,487.9991,0.010009766,1e-04,-487.9991,0.12212799,0.11411841,0.08160691,0.049704064,inf,inf,inf,inf,inf,1,1,1,1,3,2,2,1,2,0,1,1,0,2,0,0
1777225799537000,1777225799537000,1777225652689000,47.397742,8.5455943,0.038677797,0.0030328652,-0.029083252,-0.0005730107,0.0002314337,-487.9991,-0.0064217295,0.009257467,-0.013094098,0.0030436167,-2.551949e-05,-1.4980818e-05,4.813075e-06,0.0028514017,0.028240193,0.031928062,0.01414818,0.00036347282,0.0139300665,0.0050611896,2.04704e-05,487.9991,0.009033203,0.0017000014,-487.9991,0.11988111,0.112791725,0.07995907,0.049256694,inf,inf,inf,inf,inf,1,1,1,1,3,2,2,1,2,0,1,1,0,2,0,0
1777225799545000,1777225799545000,1777225652689000,47.397742,8.5455943,0.038678147,0.0029822772,-0.029052734,-0.0005730107,0.0002314337,-487.9991,-0.006196867,0.00919048,-0.013187801,0.002972394,-2.551949e-05,-1.4980818e-05,4.813075e-06,0.023672666,0.0023082807,-0.018983612,0.01415066,0.0003635831,0.013933266,0.0050611896,2.0514548e-05,487.9991,0.009124756,0.0033000028,-487.9991,0.1202831,0.11304173,0.080258176,0.049340054,inf,inf,inf,inf,inf,1,1,1,1,3,2,2,1,2,0,1,1,0,2,0,0
1777225799553000,1777225799553000,1777225652689000,47.397742,8.5455943,0.038680058,0.002935476,-0.0289917,-0.0005730107,0.0002314337,-487.9991,-0.0058628693,0.00941563,-0.013158686,0.0030192062,-2.551949e-05,-1.4980818e-05,4.813075e-06,0.037432086,0.038529646,-0.0033993272,0.014088246,0.00036369346,0.013871476,0.0050611896,2.0558738e-05,487.9991,0.009216309,0.004900004,-487.9991,0.12068782,0.11329257,0.08055733,0.049423292,inf,inf,inf,inf,inf,1,1,1,1,3,2,2,1,2,0,1,1,0,2,0,0
1777225799561000,1777225799561000,1777225652689000,47.397742,8.5455943,0.03868272,0.002893367,-0.028961182,-0.0005730107,0.0002314337,-487.9991,-0.0057258517,0.009501419,-0.013466532,0.0027244159,-2.551949e-05,-1.4980818e-05,4.813075e-06,0.012922735,0.020818159,-0.04529394,0.014075957,0.00036380376,0.013859705,0.0050611896,2.0602958e-05,487.9991,0.009307861,0.006500005,-487.9991,0.12109529,0.11354425,0.08085701,0.049506396,inf,inf,inf,inf,inf,1,1,1,1,3,2,2,1,2,0,1,1,0,2,0,0
1777225799569000,1777225799569000,1777225652689000,47.397742,8.5455943,0.03868583,0.0028542788,-0.028930664,-0.0005730107,0.0002314337,-487.9991,-0.0055711586,0.009443835,-0.013421927,0.002777616,-2.551949e-05,-1.4980818e-05,4.813075e-06,0.0152392,0.0026128558,-0.0010184011,0.01411067,0.0003639142,0.013894842,0.0050611896,2.0647225e-05,487.9991,0.009399414,0.008100006,-487.9991,0.12150552,0.11379677,0.08115748,0.049589373,inf,inf,inf,inf,inf,1,1,1,1,3,2,2,1,2,0,1,1,0,2,0,0
