timestamp,timestamp_sample,ref_timestamp,ref_lat,ref_lon,x,y,z,delta_xy[0],delta_xy[1],delta_z,vx,vy,vz,z_deriv,delta_vxy[0],delta_vxy[1],delta_vz,ax,ay,az,heading,heading_var,unaided_heading,delta_heading,tilt_var,ref_alt,dist_bottom,dist_bottom_var,delta_dist_bottom,eph,epv,evh,evv,vxy_max,vz_max,hagl_min,hagl_max_z,hagl_max_xy,xy_valid,z_valid,v_xy_valid,v_z_valid,xy_reset_counter,z_reset_counter,vxy_reset_counter,vz_reset_counter,heading_reset_counter,heading_good_for_control,xy_global,z_global,dist_bottom_valid,dist_bottom_reset_counter,dist_bottom_sensor_bitfield,dead_reckoning
1777225937769000,1777225937769000,1777225652689000,47.397742,8.5455943,-0.027647482,-0.027826725,0.018585205,-0.0005730107,0.0002314337,-487.9991,-0.0030996955,-0.0144957565,-0.04148309,-0.072391495,-2.551949e-05,-1.4980818e-05,4.813075e-06,-0.014783557,0.006465532,-0.048984304,0.01702224,0.0002987467,0.014749261,0.0050611896,1.907143e-05,487.9991,0.010009766,1e-04,-487.9991,0.12070705,0.11322653,0.080626115,0.04935209,inf,inf,inf,inf,inf,1,1,1,1,3,2,2,1,2,1,1,1,0,2,0,0
1777225937777000,1777225937777000,1777225652689000,47.397742,8.5455943,-0.027611395,-0.027832804,0.018310547,-0.0005730107,0.0002314337,-487.9991,-0.0031615621,-0.014606149,-0.0419495,-0.07262326,-2.551949e-05,-1.4980818e-05,4.813075e-06,-0.0114132315,-0.024543025,-0.06276788,0.017078072,0.00029885393,0.014803683,0.0050611896,1.9115963e-05,487.9991,0.010009766,1e-04,-487.9991,0.12111493,0.11347764,0.08092573,0.04943485,inf,inf,inf,inf,inf,1,1,1,1,3,2,2,1,2,1,1,1,0,2,0,0
1777225937785000,1777225937785000,1777225652689000,47.397742,8.5455943,-0.027573846,-0.027841486,0.018035889,-0.0005730107,0.0002314337,-487.9991,-0.0024955703,-0.014478479,-0.041731767,-0.072169915,-2.551949e-05,-1.4980818e-05,4.813075e-06,0.079661354,0.0055390927,0.02278527,0.017065777,0.00029896115,0.014789941,0.0050611896,1.9160532e-05,487.9991,0.010009766,1e-04,-487.9991,0.12152556,0.11372958,0.081226744,0.04951748,inf,inf,inf,inf,inf,1,1,1,1,3,2,2,1,2,1,1,1,0,2,0,0
1777225937793000,1777225937793000,1777225652689000,47.397742,8.5455943,-0.02753327,-0.027853252,0.01776123,-0.0005730107,0.0002314337,-487.9991,-0.002080416,-0.01463402,-0.041461624,-0.0716632,-2.551949e-05,-1.4980818e-05,4.813075e-06,0.048398063,-0.029546626,0.029371584,0.01706414,0.0002990685,0.014786815,0.0050611896,1.9205141e-05,487.9991,0.010009766,1e-04,-487.9991,0.12193897,0.11398236,0.08152896,0.049599983,inf,inf,inf,inf,inf,1,1,1,1,3,2,2,1,2,1,1,1,0,2,0,0
1777225937801000,1777225937801000,1777225652689000,47.397742,8.5455943,-0.027477143,-0.027837377,0.017486572,-0.0005730107,0.0002314337,-487.9991,-0.0022033486,-0.014814392,-0.041325904,-0.07130031,-2.551949e-05,-1.4980818e-05,4.813075e-06,-0.019788137,-0.035276882,0.012054573,0.017074276,0.0002983463,0.014795421,0.0050611896,1.8958268e-05,487.9991,0.010009766,1e-04,-487.9991,0.11970233,0.11260379,0.07987976,0.04914573,inf,inf,inf,inf,inf,1,1,1,1,3,2,2,1,2,1,1,1,0,2,0,0
1777225937809000,1777225937809000,1777225652689000,47.397742,8.5455943,-0.0274241,-0.02782693,0.017211914,-0.0005730107,0.0002314337,-487.9991,-0.0022402778,-0.015020761,-0.04130557,-0.07105165,-2.551949e-05,-1.4980818e-05,4.813075e-06,-0.008924669,-0.038145058,-0.0023194586,0.017079445,0.0002984534,0.014799733,0.0050611896,1.9002704e-05,487.9991,0.010009766,1e-04,-487.9991,0.120103374,0.11285282,0.080179185,0.049228806,inf,inf,inf,inf,inf,1,1,1,1,3,2,2,1,2,1,1,1,0,2,0,0
1777225937817000,1777225937817000,1777225652689000,47.397742,8.5455943,-0.027370742,-0.027820356,0.016967773,-0.0005730107,0.0002314337,-487.9991,-0.0018339603,-0.014906732,-0.041347984,-0.07086474,-2.551949e-05,-1.4980818e-05,4.813075e-06,0.04659125,0.0022707856,-0.010114162,0.01710381,0.00029856042,0.014823208,0.0050611896,1.9047173e-05,487.9991,0.010009766,1e-04,-487.9991,0.120507166,0.113102674,0.080478,0.04931175,inf,inf,inf,inf,inf,1,1,1,1,3,2,2,1,2,1,1,1,0,2,0,0
1777225937825000,1777225937825000,1777225652689000,47.397742,8.5455943,-0.027315646,-0.027816623,0.016693115,-0.0005730107,0.0002314337,-487.9991,-0.0013983683,-0.014888496,-0.041601513,-0.07088809,-2.551949e-05,-1.4980818e-05,4.813075e-06,0.050356153,-0.009347169,-0.03645662,0.017174061,0.00029866764,0.01489253,0.0050611896,1.909169e-05,487.9991,0.010009766,1e-04,-487.9991,0.12091369,0.113353364,0.08077809,0.04939457,inf,inf,inf,inf,inf,1,1,1,1,3,2,2,1,2,1,1,1,0,2,0,0
1777225937833000,1777225937833000,1777225652689000,47.397742,8.5455943,-0.027260257,-0.027816404,0.016418457,-0.0005730107,0.0002314337,-487.9991,-0.0014510948,-0.014962969,-0.041725885,-0.070781514,-2.551949e-05,-1.4980818e-05,4.813075e-06,-0.010579767,-0.0205903,-0.020266509,0.017210234,0.00029877492,0.014927788,0.0050611896,1.9136245e-05,487.9991,0.010009766,1e-04,-487.9991,0.12132298,0.113604896,0.08107884,0.049477264,inf,inf,inf,inf,inf,1,1,1,1,3,2,2,1,2,1,1,1,0,2,0,0
1777225937841000,1777225937841000,1777225652689000,47.397742,8.5455943,-0.027205842,-0.027820863,0.016174316,-0.0005730107,0.0002314337,-487.9991,-0.0011308043,-0.015181624,-0.041941922,-0.0707659,-2.551949e-05,-1.4980818e-05,4.813075e-06,0.0361449,-0.038269658,-0.0316794,0.017277256,0.00029888217,0.014993904,0.0050611896,1.9180834e-05,487.9991,0.010009766,1e-04,-487.9991,0.12173504,0.113857254,0.08137984,0.049559824,inf,inf,inf,inf,inf,1,1,1,1,3,2,2,1,2,1,1,1,0,2,0,0
1777225937849000,1777225937849000,1777225652689000,47.397742,8.5455943,-0.027150039,-0.027829146,0.015899658,-0.0005730107,0.0002314337,-487.9991,-0.0009463447,-0.015076019,-0.041908145,-0.07049681,-2.551949e-05,-1.4980818e-05,4.813075e-06,0.01926427,0.0025924048,-0.0005234032,0.017248394,0.00029898933,0.014964145,0.0050611896,1.9225452e-05,487.9991,0.010009766,1e-04,-487.9991,0.12214986,0.114050366,0.081681006,0.049631607,inf,inf,inf,inf,inf,1,1,1,1,3,2,2,1,2,1,1,1,0,2,0,0
1777225937857000,1777225937857000,1777225652689000,47.397742,8.5455943,-0.027092306,-0.02780705,0.015655518,-0.0005730107,0.0002314337,-487.9991,-0.0012186711,-0.01477583,-0.041889768,-0.07025504,-2.551949e-05,-1.4980818e-05,4.813075e-06,-0.038089294,0.024369648,-0.002863351,0.017200349,0.00029907873,0.014915217,0.0050611896,1.8987621e-05,487.9991,0.010009766,1e-04,-487.9991,0.1199005,0.11272684,0.080029026,0.04918619,inf,inf,inf,inf,inf,1,1,1,1,3,2,2,1,2,1,1,1,0,2,0,0
1777225937865000,1777225937865000,1777225652689000,47.397742,8.5455943,-0.027038328,-0.027786607,0.015380859,-0.0005730107,0.0002314337,-487.9991,-0.0015261568,-0.014596745,-0.04178091,-0.06992205,-2.551949e-05,-1.4980818e-05,4.813075e-06,-0.04237768,0.009574993,0.0085053025,0.01711629,0.00029837462,0.014830092,0.0050611896,1.9020963e-05,487.9991,0.010009766,1e-04,-487.9991,0.120300636,0.11297626,0.080319695,0.0492692,inf,inf,inf,inf,inf,1,1,1,1,3,2,2,1,2,1,1,1,0,2,0,0
1777225937873000,1777225937873000,1777225652689000,47.397742,8.5455943,-0.026985647,-0.02776881,0.015106201,-0.0005730107,0.0002314337,-487.9991,-0.0012724309,-0.014417242,-0.041826144,-0.06974247,-2.551949e-05,-1.4980818e-05,4.813075e-06,0.027729686,0.010009678,-0.010698567,0.017132027,0.00029833283,0.014845053,0.0050611896,1.9063293e-05,487.9991,0.010009766,1e-04,-487.9991,0.12070534,0.113226525,0.080618426,0.049352083,inf,inf,inf,inf,inf,1,1,1,1,3,2,2,1,2,1,1,1,0,2,0,0
1777225937881000,1777225937881000,1777225652689000,47.397742,8.5455943,-0.026932422,-0.027752602,0.014862061,-0.0005730107,0.0002314337,-487.9991,-0.0011094942,-0.014159266,-0.041842967,-0.069533825,-2.551949e-05,-1.4980818e-05,4.813075e-06,0.016480636,0.020184418,-0.0070915553,0.017126353,0.00029843982,0.014838709,0.0050611896,1.910781e-05,487.9991,0.010009766,1e-04,-487.9991,0.12111317,0.11347763,0.080919325,0.049434837,inf,inf,inf,inf,inf,1,1,1,1,3,2,2,1,2,1,1,1,0,2,0,0
1777225937889000,1777225937889000,1777225652689000,47.397742,8.5455943,-0.026878983,-0.027737882,0.01461792,-0.0005730107,0.0002314337,-487.9991,-0.00091284764,-0.013796873,-0.041989453,-0.069454245,-2.551949e-05,-1.4980818e-05,4.813075e-06,0.020792823,0.03359639,-0.023244878,0.017135618,0.00029854686,0.014847327,0.0050611896,1.9152367e-05,487.9991,0.010009766,1e-04,-487.9991,0.121523775,0.113729574,0.08121999,0.049517464,inf,inf,inf,inf,inf,1,1,1,1,3,2,2,1,2,1,1,1,0,2,0,0
1777225937897000,1777225937897000,1777225652689000,47.397742,8.5455943,-0.026825825,-0.027724471,0.014343262,-0.0005730107,0.0002314337,-487.9991,-0.00078617065,-0.013748797,-0.04218923,-0.06942743,-2.551949e-05,-1.4980818e-05,4.813075e-06,0.012139029,-0.0053496156,-0.029852612,0.017095858,0.00029865393,0.01480693,0.0050611896,1.9196961e-05,487.9991,0.010009766,1e-04,-487.9991,0.12193715,0.11398234,0.08152126,0.049599968,inf,inf,inf,inf,inf,1,1,1,1,3,2,2,1,2,1,1,1,0,2,0,0
1777225937905000,1777225937905000,1777225652689000,47.397742,8.5455943,-0.026769979,-0.027684946,0.014099121,-0.0005730107,0.0002314337,-487.9991,-0.00084638817,-0.013890418,-0.04189113,-0.068909556,-2.551949e-05,-1.4980818e-05,4.813075e-06,-0.011411609,-0.03141612,0.031792555,0.017062455,0.00029874285,0.014772909,0.0050611896,1.8961382e-05,487.9991,0.010009766,1e-04,-487.9991,0.119702905,0.11260378,0.079881966,0.049145713,inf,inf,inf,inf,inf,1,1,1,1,3,2,2,1,2,1,1,1,0,2,0,0
1777225937913000,1777225937913000,1777225652689000,47.397742,8.5455943,-0.026715407,-0.027650593,0.013824463,-0.0005730107,0.0002314337,-487.9991,-0.0007406696,-0.013977417,-0.041617617,-0.068415575,-2.551949e-05,-1.4980818e-05,4.813075e-06,0.009427228,-0.024183726,0.028789507,0.017101578,0.00029885,0.014811248,0.0050611896,1.9005813e-05,487.9991,0.010009766,1e-04,-487.9991,0.12010396,0.112852804,0.0801822,0.049228787,inf,inf,inf,inf,inf,1,1,1,1,3,2,2,1,2,1,1,1,0,2,0,0
1777225937921000,1777225937921000,1777225652689000,47.397742,8.5455943,-0.026661595,-0.027618496,0.013580322,-0.0005730107,0.0002314337,-487.9991,-0.0006540971,-0.013471575,-0.04196179,-0.06853857,-2.551949e-05,-1.4980818e-05,4.813075e-06,0.007132441,0.050312225,-0.0483538,0.017129054,0.0002989572,0.01483796,0.0050611896,1.9050283e-05,487.9991,0.010009766,1e-04,-487.9991,0.12050777,0.11310267,0.08048308,0.049311735,inf,inf,inf,inf,inf,1,1,1,1,3,2,2,1,2,1,1,1,0,2,0,0
1777225937929000,1777225937929000,1777225652689000,47.397742,8.5455943,-0.026607586,-0.027586736,0.013336182,-0.0005730107,0.0002314337,-487.9991,-0.0004933055,-0.013208591,-0.042287603,-0.06864346,-2.551949e-05,-1.4980818e-05,4.813075e-06,0.016500356,0.020329414,-0.04599243,0.017065927,0.0002990644,0.014774097,0.0050611896,1.909479e-05,487.9991,0.010009766,1e-04,-487.9991,0.120914325,0.11335336,0.08078455,0.049394555,inf,inf,inf,inf,inf,1,1,1,1,3,2,2,1,2,1,1,1,0,2,0,0
1777225937937000,1777225937937000,1777225652689000,47.397742,8.5455943,-0.026554883,-0.027556438,0.013061523,-0.0005730107,0.0002314337,-487.9991,-0.0005601876,-0.013007074,-0.04222598,-0.06836116,-2.551949e-05,-1.4980818e-05,4.813075e-06,-0.011850292,0.012860909,0.0025019979,0.017045386,0.00029836094,0.01475285,0.0050611896,1.9128085e-05,487.9991,0.010009766,1e-04,-487.9991,0.121321246,0.11360489,0.081075415,0.049477246,inf,inf,inf,inf,inf,1,1,1,1,3,2,2,1,2,1,1,1,0,2,0,0
1777225937945000,1777225937945000,1777225652689000,47.397742,8.5455943,-0.026504003,-0.027529774,0.012817383,-0.0005730107,0.0002314337,-487.9991,-0.00056442636,-0.013198058,-0.041959383,-0.06787426,-2.551949e-05,-1.4980818e-05,4.813075e-06,-0.003931157,-0.03583552,0.028186942,0.017056728,0.00029846793,0.014764637,0.0050611896,1.9172658e-05,487.9991,0.010009766,1e-04,-487.9991,0.12173328,0.11385725,0.08137567,0.049559813,inf,inf,inf,inf,inf,1,1,1,1,3,2,2,1,2,1,1,1,0,2,0,0
1777225937953000,1777225937953000,1777225652689000,47.397742,8.5455943,-0.026452258,-0.027506389,0.012573242,-0.0005730107,0.0002314337,-487.9991,-0.00014863609,-0.012867743,-0.041926917,-0.067618944,-2.551949e-05,-1.4980818e-05,4.813075e-06,0.04865654,0.029683527,-0.0011129304,0.017022237,0.00029857497,0.014730619,0.0050611896,1.9217268e-05,487.9991,0.010009766,1e-04,-487.9991,0.12214807,0.11405036,0.08167632,0.049631596,inf,inf,inf,inf,inf,1,1,1,1,3,2,2,1,2,1,1,1,0,2,0,0
1777225937961000,1777225937961000,1777225652689000,47.397742,8.5455943,-0.026387181,-0.027460048,0.012298584,-0.0005730107,0.0002314337,-487.9991,-0.0002970075,-0.012508213,-0.04221843,-0.067708574,-2.551949e-05,-1.4980818e-05,4.813075e-06,-0.022534255,0.031308115,-0.04176143,0.01707612,0.0002986635,0.014785001,0.0050611896,1.8979641e-05,487.9991,0.010009766,1e-04,-487.9991,0.11989889,0.11272683,0.080024675,0.049186178,inf,inf,inf,inf,inf,1,1,1,1,3,2,2,1,2,1,1,1,0,2,0,0
1777225937969000,1777225937969000,1777225652689000,47.397742,8.5455943,-0.026323905,-0.027415264,0.012023926,-0.0005730107,0.0002314337,-487.9991,-0.00010853845,-0.012330732,-0.042587552,-0.06787575,-2.551949e-05,-1.4980818e-05,4.813075e-06,0.019676989,0.008947654,-0.051394567,0.017059932,0.0002987706,0.014769163,0.0050611896,1.902409e-05,487.9991,0.010009766,1e-04,-487.9991,0.12030127,0.11297625,0.08032479,0.04926919,inf,inf,inf,inf,inf,1,1,1,1,3,2,2,1,2,1,1,1,0,2,0,0
1777225937977000,1777225937977000,1777225652689000,47.397742,8.5455943,-0.02626174,-0.027374106,0.011779785,-0.0005730107,0.0002314337,-487.9991,-0.00036123468,-0.012293709,-0.042439874,-0.06752608,-2.551949e-05,-1.4980818e-05,4.813075e-06,-0.0353719,-0.008222164,0.013271346,0.016993621,0.00029887777,0.014703209,0.0050611896,1.9068573e-05,487.9991,0.010009766,1e-04,-487.9991,0.12070639,0.11322652,0.08062576,0.049352076,inf,inf,inf,inf,inf,1,1,1,1,3,2,2,1,2,1,1,1,0,2,0,0
1777225937985000,1777225937985000,1777225652689000,47.397742,8.5455943,-0.026204327,-0.027334139,0.011505127,-0.0005730107,0.0002314337,-487.9991,-0.00075793086,-0.011793658,-0.04233512,-0.06721927,-2.551949e-05,-1.4980818e-05,4.813075e-06,-0.05328058,0.050032858,0.007970723,0.016966663,0.00029898496,0.014676623,0.0050611896,1.9113097e-05,487.9991,0.010009766,1e-04,-487.9991,0.12111426,0.113477625,0.08092646,0.049434833,inf,inf,inf,inf,inf,1,1,1,1,3,2,2,1,2,1,1,1,0,2,0,0
1777225937993000,1777225937993000,1777225652689000,47.397742,8.5455943,-0.026149057,-0.02729537,0.011230469,-0.0005730107,0.0002314337,-487.9991,-0.0006594659,-0.011644508,-0.042408865,-0.06709092,-2.551949e-05,-1.4980818e-05,4.813075e-06,0.008708464,0.00653876,-0.014279037,0.016949281,0.00029909218,0.014659625,0.0050611896,1.9157656e-05,487.9991,0.010009766,1e-04,-487.9991,0.1215249,0.11372957,0.08122786,0.049517464,inf,inf,inf,inf,inf,1,1,1,1,3,2,2,1,2,1,1,1,0,2,0,0
1777225938001000,1777225938001000,1777225652689000,47.397742,8.5455943,-0.026096065,-0.027259152,0.010986328,-0.0005730107,0.0002314337,-487.9991,-0.000840126,-0.011450008,-0.042525932,-0.06700587,-2.551949e-05,-1.4980818e-05,4.813075e-06,-0.02595411,0.012623209,-0.019632744,0.016958501,0.00029838912,0.014669243,0.0050611896,1.9190931e-05,487.9991,0.010009766,1e-04,-487.9991,0.12193583,0.113982335,0.08151927,0.04959997,inf,inf,inf,inf,inf,1,1,1,1,3,2,2,1,2,1,1,1,0,2,0,0
1777225938009000,1777225938009000,1777225652689000,47.397742,8.5455943,-0.026043963,-0.027215367,0.01071167,-0.0005730107,0.0002314337,-487.9991,-0.00082173845,-0.011143895,-0.04254677,-0.0668309,-2.551949e-05,-1.4980818e-05,4.813075e-06,-0.0010425474,0.02533959,-0.008263159,0.017034227,0.00029847727,0.014744952,0.0050611896,1.8955505e-05,487.9991,0.010009766,1e-04,-487.9991,0.11970172,0.112603776,0.07987957,0.049145713,inf,inf,inf,inf,inf,1,1,1,1,3,2,2,1,2,1,1,1,0,2,0,0
1777225938017000,1777225938017000,1777225652689000,47.397742,8.5455943,-0.025991706,-0.02717287,0.010437012,-0.0005730107,0.0002314337,-487.9991,-0.0005631761,-0.010919559,-0.042534992,-0.066623226,-2.551949e-05,-1.4980818e-05,4.813075e-06,0.029062634,0.015494938,-0.0041062008,0.017084457,0.00029858426,0.014795059,0.0050611896,1.8999926e-05,487.9991,0.010009766,1e-04,-487.9991,0.12010276,0.1128528,0.080178834,0.049228784,inf,inf,inf,inf,inf,1,1,1,1,3,2,2,1,2,1,1,1,0,2,0,0
1777225938025000,1777225938025000,1777225652689000,47.397742,8.5455943,-0.025938593,-0.027132533,0.010192871,-0.0005730107,0.0002314337,-487.9991,-0.00028693842,-0.010762917,-0.042777695,-0.06667,-2.551949e-05,-1.4980818e-05,4.813075e-06,0.031357743,0.0074026072,-0.03583915,0.01708032,0.00029869127,0.01479082,0.0050611896,1.9044388e-05,487.9991,0.010009766,1e-04,-487.9991,0.12050654,0.11310266,0.08047903,0.04931173,inf,inf,inf,inf,inf,1,1,1,1,3,2,2,1,2,1,1,1,0,2,0,0
1777225938033000,1777225938033000,1777225652689000,47.397742,8.5455943,-0.025885863,-0.027095398,0.009918213,-0.0005730107,0.0002314337,-487.9991,-0.00039999935,-0.010856031,-0.042647514,-0.066343896,-2.551949e-05,-1.4980818e-05,4.813075e-06,-0.017220797,-0.023457138,0.010846647,0.017082645,0.00029879832,0.014793046,0.0050611896,1.9088886e-05,487.9991,0.010009766,1e-04,-487.9991,0.12091307,0.11335335,0.0807794,0.049394548,inf,inf,inf,inf,inf,1,1,1,1,3,2,2,1,2,1,1,1,0,2,0,0
1777225938041000,1777225938041000,1777225652689000,47.397742,8.5455943,-0.025836391,-0.027061913,0.009674072,-0.0005730107,0.0002314337,-487.9991,-0.00068951806,-0.0108286925,-0.042086657,-0.06558713,-2.551949e-05,-1.4980818e-05,4.813075e-06,-0.039201535,-0.008050192,0.06475439,0.017041346,0.00029890536,0.01475165,0.0050611896,1.9133418e-05,487.9991,0.010009766,1e-04,-487.9991,0.12132236,0.11360487,0.08108042,0.04947724,inf,inf,inf,inf,inf,1,1,1,1,3,2,2,1,2,1,1,1,0,2,0,0
1777225938049000,1777225938049000,1777225652689000,47.397742,8.5455943,-0.025789656,-0.027032005,0.009399414,-0.0005730107,0.0002314337,-487.9991,-0.00087383663,-0.010944873,-0.04157448,-0.064879075,-2.551949e-05,-1.4980818e-05,4.813075e-06,-0.025975773,-0.025648402,0.05874177,0.017001009,0.00029901255,0.014711231,0.0050611896,1.9177998e-05,487.9991,0.010009766,1e-04,-487.9991,0.121734425,0.11385724,0.08138182,0.0495598,inf,inf,inf,inf,inf,1,1,1,1,3,2,2,1,2,1,1,1,0,2,0,0
1777225938057000,1777225938057000,1777225652689000,47.397742,8.5455943,-0.025746414,-0.0270061,0.009155273,-0.0005730107,0.0002314337,-487.9991,-0.0011518572,-0.011001616,-0.04158856,-0.06469435,-2.551949e-05,-1.4980818e-05,4.813075e-06,-0.037612934,-0.01788073,-0.0070799137,0.017020347,0.00029911965,0.014730489,0.0050611896,1.9222605e-05,487.9991,0.010009766,1e-04,-487.9991,0.12214925,0.11405034,0.08168213,0.04963158,inf,inf,inf,inf,inf,1,1,1,1,3,2,2,1,2,1,1,1,0,2,0,0
1777225938065000,1777225938065000,1777225652689000,47.397742,8.5455943,-0.025704443,-0.026961144,0.008911133,-0.0005730107,0.0002314337,-487.9991,-0.001294934,-0.01109438,-0.041555285,-0.06447186,-2.551949e-05,-1.4980818e-05,4.813075e-06,-0.020674294,-0.024323361,-0.0017136334,0.016997011,0.0002992082,0.014707077,0.0050611896,1.898481e-05,487.9991,0.010009766,1e-04,-487.9991,0.11989993,0.11272682,0.08002962,0.049186163,inf,inf,inf,inf,inf,1,1,1,1,3,2,2,1,2,1,1,1,0,2,0,0
1777225938073000,1777225938073000,1777225652689000,47.397742,8.5455943,-0.025665913,-0.026921626,0.008666992,-0.0005730107,0.0002314337,-487.9991,-0.0014414042,-0.011226894,-0.041374326,-0.064101726,-2.551949e-05,-1.4980818e-05,4.813075e-06,-0.020836541,-0.028703727,0.01683412,0.017031375,0.00029835553,0.014741212,0.0050611896,1.9016006e-05,487.9991,0.010009766,1e-04,-487.9991,0.120299675,0.11297625,0.080319524,0.049269177,inf,inf,inf,inf,inf,1,1,1,1,3,2,2,1,2,1,1,1,0,2,0,0
1777225938081000,1777225938081000,1777225652689000,47.397742,8.5455943,-0.025629265,-0.026886715,0.008422852,-0.0005730107,0.0002314337,-487.9991,-0.0014612844,-0.01136264,-0.04111754,-0.06365576,-2.551949e-05,-1.4980818e-05,4.813075e-06,-0.004945615,-0.028745977,0.02639787,0.017098082,0.00029846237,0.014808411,0.0050611896,1.906047e-05,487.9991,0.010009766,1e-04,-487.9991,0.12070476,0.11322652,0.08062051,0.04935206,inf,inf,inf,inf,inf,1,1,1,1,3,2,2,1,2,1,1,1,0,2,0,0
1777225938089000,1777225938089000,1777225652689000,47.397742,8.5455943,-0.02559311,-0.026856916,0.008148193,-0.0005730107,0.0002314337,-487.9991,-0.0013302594,-0.011605599,-0.04109151,-0.06344054,-2.551949e-05,-1.4980818e-05,4.813075e-06,0.013983172,-0.04179654,-0.0023627651,0.017200898,0.00029856933,0.014911728,0.0050611896,1.9104977e-05,487.9991,0.010009766,1e-04,-487.9991,0.12111261,0.11347762,0.080920674,0.049434815,inf,inf,inf,inf,inf,1,1,1,1,3,2,2,1,2,1,1,1,0,2,0,0
1777225938097000,1777225938097000,1777225652689000,47.397742,8.5455943,-0.025556428,-0.026832137,0.007904053,-0.0005730107,0.0002314337,-487.9991,-0.0010348699,-0.011807891,-0.04145407,-0.063613996,-2.551949e-05,-1.4980818e-05,4.813075e-06,0.034590863,-0.03636999,-0.05085533,0.01724931,0.00029867626,0.014960656,0.0050611896,1.914952e-05,487.9991,0.010009766,1e-04,-487.9991,0.12152321,0.11372955,0.08122062,0.049517445,inf,inf,inf,inf,inf,1,1,1,1,3,2,2,1,2,1,1,1,0,2,0,0
1777225938105000,1777225938105000,1777225652689000,47.397742,8.5455943,-0.025519103,-0.026811529,0.007659912,-0.0005730107,0.0002314337,-487.9991,-0.00095817295,-0.0118249515,-0.04180253,-0.06377352,-2.551949e-05,-1.4980818e-05,4.813075e-06,0.0073148534,-0.012881131,-0.04901364,0.017242437,0.00029878324,0.0149542615,0.0050611896,1.91941e-05,487.9991,0.010009766,1e-04,-487.9991,0.121936575,0.11398233,0.08152165,0.04959995,inf,inf,inf,inf,inf,1,1,1,1,3,2,2,1,2,1,1,1,0,2,0,0
1777225938113000,1777225938113000,1777225652689000,47.397742,8.5455943,-0.025482224,-0.02677288,0.0074157715,-0.0005730107,0.0002314337,-487.9991,-0.001107234,-0.011691156,-0.042330015,-0.06411048,-2.551949e-05,-1.4980818e-05,4.813075e-06,-0.02081886,0.004252481,-0.07231719,0.017290007,0.0002988715,0.015002295,0.0050611896,1.8958563e-05,487.9991,0.010009766,1e-04,-487.9991,0.11970237,0.11260376,0.079882644,0.049145695,inf,inf,inf,inf,inf,1,1,1,1,3,2,2,1,2,1,1,1,0,2,0,0
1777225938121000,1777225938121000,1777225652689000,47.397742,8.5455943,-0.025447618,-0.0267366,0.007171631,-0.0005730107,0.0002314337,-487.9991,-0.0012685158,-0.011652684,-0.04279616,-0.06438634,-2.551949e-05,-1.4980818e-05,4.813075e-06,-0.022294318,-0.0072929584,-0.0645453,0.017367573,0.00029897862,0.015080156,0.0050611896,1.9002982e-05,487.9991,0.010009766,1e-04,-487.9991,0.12010343,0.11285279,0.0801834,0.04922877,inf,inf,inf,inf,inf,1,1,1,1,3,2,2,1,2,1,1,1,0,2,0,0
1777225938129000,1777225938129000,1777225652689000,47.397742,8.5455943,-0.02541541,-0.02670445,0.0069274902,-0.0005730107,0.0002314337,-487.9991,-0.0013812479,-0.011702999,-0.042961586,-0.064361714,-2.551949e-05,-1.4980818e-05,4.813075e-06,-0.016170915,-0.018027097,-0.026853753,0.01733753,0.00029908578,0.015050378,0.0050611896,1.9047442e-05,487.9991,0.010009766,1e-04,-487.9991,0.120507225,0.113102645,0.08048291,0.049311716,inf,inf,inf,inf,inf,1,1,1,1,3,2,2,1,2,1,1,1,0,2,0,0
1777225938137000,1777225938137000,1777225652689000,47.397742,8.5455943,-0.025384411,-0.026675493,0.006652832,-0.0005730107,0.0002314337,-487.9991,-0.001403784,-0.011662955,-0.043185227,-0.06439561,-2.551949e-05,-1.4980818e-05,4.813075e-06,-0.004839208,-0.006378189,-0.03403192,0.017322397,0.00029838306,0.015035495,0.0050611896,1.9080751e-05,487.9991,0.010009766,1e-04,-487.9991,0.12091144,0.113353334,0.08077343,0.049394533,inf,inf,inf,inf,inf,1,1,1,1,3,2,2,1,2,1,1,1,0,2,0,0
1777225938145000,1777225938145000,1777225652689000,47.397742,8.5455943,-0.025355306,-0.026650218,0.0064086914,-0.0005730107,0.0002314337,-487.9991,-0.0015711446,-0.011767918,-0.043639563,-0.06466054,-2.551949e-05,-1.4980818e-05,4.813075e-06,-0.02288725,-0.024166835,-0.062772065,0.017275395,0.00029848993,0.014988637,0.0050611896,1.9125273e-05,487.9991,0.010009766,1e-04,-487.9991,0.121320695,0.113604866,0.08107415,0.049477223,inf,inf,inf,inf,inf,1,1,1,1,3,2,2,1,2,1,1,1,0,2,0,0
1777225938153000,1777225938153000,1777225652689000,47.397742,8.5455943,-0.025327029,-0.026629677,0.006164551,-0.0005730107,0.0002314337,-487.9991,-0.0013951571,-0.011949217,-0.04378852,-0.06462044,-2.551949e-05,-1.4980818e-05,4.813075e-06,0.020085879,-0.033377234,-0.024505889,0.0172721,0.00029859695,0.014985459,0.0050611896,1.9169842e-05,487.9991,0.010009766,1e-04,-487.9991,0.12173272,0.113857225,0.08137514,0.049559787,inf,inf,inf,inf,inf,1,1,1,1,3,2,2,1,2,1,1,1,0,2,0,0
1777225938161000,1777225938161000,1777225652689000,47.397742,8.5455943,-0.025300348,-0.026612854,0.0058898926,-0.0005730107,0.0002314337,-487.9991,-0.0017904954,-0.011953171,-0.043778654,-0.06441886,-2.551949e-05,-1.4980818e-05,4.813075e-06,-0.051278945,-0.010892082,-0.004678964,0.017345525,0.00029870393,0.0150589775,0.0050611896,1.921444e-05,487.9991,0.010009766,1e-04,-487.9991,0.12214751,0.114050336,0.081676275,0.049631562,inf,inf,inf,inf,inf,1,1,1,1,3,2,2,1,2,1,1,1,0,2,0,0
1777225938169000,1777225938169000,1777225652689000,47.397742,8.5455943,-0.025285797,-0.026573332,0.005645752,-0.0005730107,0.0002314337,-487.9991,-0.001805275,-0.0120488,-0.04398822,-0.064440474,-2.551949e-05,-1.4980818e-05,4.813075e-06,-0.003158534,-0.024249826,-0.03285892,0.017406221,0.00029879206,0.015119756,0.0050611896,1.8976865e-05,487.9991,0.010009766,1e-04,-487.9991,0.11989837,0.112726815,0.08002481,0.049186148,inf,inf,inf,inf,inf,1,1,1,1,3,2,2,1,2,1,1,1,0,2,0,0
1777225938177000,1777225938177000,1777225652689000,47.397742,8.5455943,-0.025269404,-0.026537994,0.0054016113,-0.0005730107,0.0002314337,-487.9991,-0.0013690656,-0.012049967,-0.044476606,-0.06474132,-2.551949e-05,-1.4980818e-05,4.813075e-06,0.053253576,-0.012076585,-0.06759632,0.017314767,0.0002988991,0.015028218,0.0050611896,1.9021303e-05,487.9991,0.010009766,1e-04,-487.9991,0.12030074,0.11297624,0.08032539,0.04926916,inf,inf,inf,inf,inf,1,1,1,1,3,2,2,1,2,1,1,1,0,2,0,0
1777225938185000,1777225938185000,1777225652689000,47.397742,8.5455943,-0.025253467,-0.02650634,0.005126953,-0.0005730107,0.0002314337,-487.9991,-0.0016949318,-0.012105675,-0.044778705,-0.06485633,-2.551949e-05,-1.4980818e-05,4.813075e-06,-0.04197351,-0.018539956,-0.044198703,0.017272213,0.0002990062,0.014985571,0.0050611896,1.9065776e-05,487.9991,0.010009766,1e-04,-487.9991,0.12070585,0.1132265,0.08062512,0.049352042,inf,inf,inf,inf,inf,1,1,1,1,3,2,2,1,2,1,1,1,0,2,0,0
1777225938193000,1777225938193000,1777225652689000,47.397742,8.5455943,-0.025240235,-0.026479155,0.0048828125,-0.0005730107,0.0002314337,-487.9991,-0.0018576237,-0.012258115,-0.04472755,-0.06461864,-2.551949e-05,-1.4980818e-05,4.813075e-06,-0.021549141,-0.030288868,6.658956e-05,0.017269133,0.00029911337,0.014982391,0.0050611896,1.9110288e-05,487.9991,0.010009766,1e-04,-487.9991,0.121113725,0.1134776,0.08092394,0.049434796,inf,inf,inf,inf,inf,1,1,1,1,3,2,2,1,2,1,1,1,0,2,0,0
1777225938201000,1777225938201000,1777225652689000,47.397742,8.5455943,-0.025227591,-0.026456147,0.0046081543,-0.0005730107,0.0002314337,-487.9991,-0.0015934543,-0.012219768,-0.044552736,-0.064258,-2.551949e-05,-1.4980818e-05,4.813075e-06,0.03184195,-0.0061087445,0.01562992,0.017270362,0.00029922044,0.014983511,0.0050611896,1.9154832e-05,487.9991,0.010009766,1e-04,-487.9991,0.12152435,0.11372954,0.081223205,0.049517427,inf,inf,inf,inf,inf,1,1,1,1,3,2,2,1,2,1,1,1,0,2,0,0
1777225938209000,1777225938209000,1777225652689000,47.397742,8.5455943,-0.02520989,-0.026435202,0.0043640137,-0.0005730107,0.0002314337,-487.9991,-0.0013401738,-0.0121391835,-0.04430207,-0.063822314,-2.551949e-05,-1.4980818e-05,4.813075e-06,0.02994058,-0.0006120144,0.025214626,0.017235383,0.0002985175,0.01494842,0.0050611896,1.9188112e-05,487.9991,0.010009766,1e-04,-487.9991,0.12193526,0.11398231,0.08151452,0.049599927,inf,inf,inf,inf,inf,1,1,1,1,3,2,2,1,2,1,1,1,0,2,0,0
1777225938217000,1777225938217000,1777225652689000,47.397742,8.5455943,-0.025199842,-0.026404377,0.004119873,-0.0005730107,0.0002314337,-487.9991,-0.0013036507,-0.011877592,-0.044281527,-0.06360879,-2.551949e-05,-1.4980818e-05,4.813075e-06,0.0032579808,0.020864153,-0.004673842,0.01726264,0.00029860553,0.01497614,0.0050611896,1.8952795e-05,487.9991,0.010009766,1e-04,-487.9991,0.119701244,0.112603754,0.0798751,0.049145676,inf,inf,inf,inf,inf,1,1,1,1,3,2,2,1,2,1,1,1,0,2,0,0
1777225938225000,1777225938225000,1777225652689000,47.397742,8.5455943,-0.025190214,-0.026373886,0.0038757324,-0.0005730107,0.0002314337,-487.9991,-0.0014594242,-0.011400408,-0.044007864,-0.063143365,-2.551949e-05,-1.4980818e-05,4.813075e-06,-0.020744264,0.048169784,0.027099622,0.017340058,0.00029871252,0.015053906,0.0050611896,1.8997209e-05,487.9991,0.010009766,1e-04,-487.9991,0.120102264,0.112852775,0.08017424,0.04922875,inf,inf,inf,inf,inf,1,1,1,1,3,2,2,1,2,1,1,1,0,2,0,0
1777225938233000,1777225938233000,1777225652689000,47.397742,8.5455943,-0.025183367,-0.026344154,0.0036315918,-0.0005730107,0.0002314337,-487.9991,-0.0017179755,-0.011236629,-0.043730758,-0.06267579,-2.551949e-05,-1.4980818e-05,4.813075e-06,-0.033561658,0.009337607,0.027659347,0.017353684,0.0002988196,0.0150678735,0.0050611896,1.9041669e-05,487.9991,0.010009766,1e-04,-487.9991,0.120506026,0.11310263,0.08047352,0.049311697,inf,inf,inf,inf,inf,1,1,1,1,3,2,2,1,2,1,1,1,0,2,0,0
1777225938241000,1777225938241000,1777225652689000,47.397742,8.5455943,-0.025176734,-0.026317583,0.0033874512,-0.0005730107,0.0002314337,-487.9991,-0.0015058068,-0.011365311,-0.043843146,-0.06259901,-2.551949e-05,-1.4980818e-05,4.813075e-06,0.025314528,-0.026882173,-0.02090074,0.017262883,0.00029892652,0.014977386,0.0050611896,1.9086154e-05,487.9991,0.010009766,1e-04,-487.9991,0.12091253,0.11335333,0.08077375,0.049394518,inf,inf,inf,inf,inf,1,1,1,1,3,2,2,1,2,1,1,1,0,2,0,0
1777225938249000,1777225938249000,1777225652689000,47.397742,8.5455943,-0.02516944,-0.026295772,0.0031433105,-0.0005730107,0.0002314337,-487.9991,-0.0013975909,-0.011485186,-0.043836728,-0.062404692,-2.551949e-05,-1.4980818e-05,4.813075e-06,0.012359675,-0.025450487,-0.0059269364,0.01726474,0.00029903356,0.014979532,0.0050611896,1.9130679e-05,487.9991,0.010009766,1e-04,-487.9991,0.1213218,0.11360485,0.08107533,0.04947721,inf,inf,inf,inf,inf,1,1,1,1,3,2,2,1,2,1,1,1,0,2,0,0
1777225938257000,1777225938257000,1777225652689000,47.397742,8.5455943,-0.025161104,-0.026276011,0.00289917,-0.0005730107,0.0002314337,-487.9991,-0.0011946418,-0.011123029,-0.044122823,-0.06250406,-2.551949e-05,-1.4980818e-05,4.813075e-06,0.024234599,0.03511797,-0.042371448,0.017287904,0.00029914078,0.015002964,0.0050611896,1.9175252e-05,487.9991,0.010009766,1e-04,-487.9991,0.12173383,0.11385722,0.08137709,0.049559772,inf,inf,inf,inf,inf,1,1,1,1,3,2,2,1,2,1,1,1,0,2,0,0
1777225938265000,1777225938265000,1777225652689000,47.397742,8.5455943,-0.02515203,-0.02625755,0.0026855469,-0.0005730107,0.0002314337,-487.9991,-0.0011378708,-0.0110551715,-0.044203214,-0.062394783,-2.551949e-05,-1.4980818e-05,4.813075e-06,0.00598813,-0.0013598691,-0.016666947,0.017277133,0.00029924797,0.014992436,0.0050611896,1.9219857e-05,487.9991,0.010009766,1e-04,-487.9991,0.12214863,0.11405032,0.08167953,0.04963155,inf,inf,inf,inf,inf,1,1,1,1,3,2,2,1,2,1,1,1,0,2,0,0
1777225938273000,1777225938273000,1777225652689000,47.397742,8.5455943,-0.025160432,-0.026235156,0.0024414062,-0.0005730107,0.0002314337,-487.9991,-0.00096760853,-0.0107196355,-0.044471707,-0.06246992,-2.551949e-05,-1.4980818e-05,4.813075e-06,0.021024814,0.03134598,-0.041179355,0.017221602,0.00029837788,0.014937127,0.0050611896,1.896894e-05,487.9991,0.010009766,1e-04,-487.9991,0.11989678,0.1127268,0.0800181,0.049186133,inf,inf,inf,inf,inf,1,1,1,1,3,2,2,1,2,1,1,1,0,2,0,0
1777225938281000,1777225938281000,1777225652689000,47.397742,8.5455943,-0.02516607,-0.026213937,0.0021972656,-0.0005730107,0.0002314337,-487.9991,-0.0006258785,-0.010596155,-0.044708192,-0.062514275,-2.551949e-05,-1.4980818e-05,4.813075e-06,0.042463716,0.005159372,-0.037032176,0.017251113,0.0002984847,0.014966978,0.0050611896,1.9013361e-05,487.9991,0.010009766,1e-04,-487.9991,0.12029911,0.11297622,0.080318265,0.049269147,inf,inf,inf,inf,inf,1,1,1,1,3,2,2,1,2,1,1,1,0,2,0,0
1777225938289000,1777225938289000,1777225652689000,47.397742,8.5455943,-0.025169438,-0.026195055,0.001953125,-0.0005730107,0.0002314337,-487.9991,-0.0003731957,-0.010514979,-0.04493144,-0.06254658,-2.551949e-05,-1.4980818e-05,4.813075e-06,0.03133928,0.00018302943,-0.03523519,0.017232602,0.00029859156,0.014948778,0.0050611896,1.9057818e-05,487.9991,0.010009766,1e-04,-487.9991,0.12070419,0.11322649,0.0806189,0.049352027,inf,inf,inf,inf,inf,1,1,1,1,3,2,2,1,2,1,1,1,0,2,0,0
1777225938297000,1777225938297000,1777225652689000,47.397742,8.5455943,-0.025169766,-0.026178325,0.0017089844,-0.0005730107,0.0002314337,-487.9991,0.00020155121,-0.010428757,-0.045165494,-0.062590785,-2.551949e-05,-1.4980818e-05,4.813075e-06,0.07160445,0.0011218298,-0.036447305,0.017232249,0.00029869846,0.014948724,0.0050611896,1.9102314e-05,487.9991,0.010009766,1e-04,-487.9991,0.12111202,0.11347759,0.08092036,0.049434785,inf,inf,inf,inf,inf,1,1,1,1,3,2,2,1,2,1,1,1,0,2,0,0
1777225938305000,1777225938305000,1777225652689000,47.397742,8.5455943,-0.025165789,-0.026163619,0.0014953613,-0.0005730107,0.0002314337,-487.9991,0.0005457509,-0.010241507,-0.045342915,-0.06257937,-2.551949e-05,-1.4980818e-05,4.813075e-06,0.042792913,0.01404581,-0.029233282,0.017242651,0.0002988054,0.014959412,0.0050611896,1.914685e-05,487.9991,0.010009766,1e-04,-487.9991,0.12152261,0.11372953,0.08122147,0.049517415,inf,inf,inf,inf,inf,1,1,1,1,3,2,2,1,2,1,1,1,0,2,0,0
1777225938313000,1777225938313000,1777225652689000,47.397742,8.5455943,-0.025159897,-0.026149917,0.0012512207,-0.0005730107,0.0002314337,-487.9991,0.0007465461,-0.009972065,-0.045291364,-0.062340003,-2.551949e-05,-1.4980818e-05,4.813075e-06,0.024874257,0.02460538,-0.00048056242,0.017244508,0.00029891238,0.014961541,0.0050611896,1.9191422e-05,487.9991,0.010009766,1e-04,-487.9991,0.12193598,0.1139823,0.0815222,0.049599916,inf,inf,inf,inf,inf,1,1,1,1,3,2,2,1,2,1,1,1,0,2,0,0
1777225938321000,1777225938321000,1777225652689000,47.397742,8.5455943,-0.025169363,-0.02612256,0.0010070801,-0.0005730107,0.0002314337,-487.9991,0.0007763636,-0.0097606955,-0.04497316,-0.061830178,-2.551949e-05,-1.4980818e-05,4.813075e-06,0.0042165667,0.015922377,0.031840518,0.017273042,0.00029900097,0.014990332,0.0050611896,1.8955907e-05,487.9991,0.010009766,1e-04,-487.9991,0.11970182,0.11260374,0.07988305,0.049145665,inf,inf,inf,inf,inf,1,1,1,1,3,2,2,1,2,1,1,1,0,2,0,0
1777225938329000,1777225938329000,1777225652689000,47.397742,8.5455943,-0.025176233,-0.026097205,0.00079345703,-0.0005730107,0.0002314337,-487.9991,0.0011625215,-0.009656016,-0.044742677,-0.061409205,-2.551949e-05,-1.4980818e-05,4.813075e-06,0.048742577,0.0029072256,0.021032987,0.017301727,0.00029910795,0.015019137,0.0050611896,1.9000316e-05,487.9991,0.010009766,1e-04,-487.9991,0.12010287,0.11285276,0.08018423,0.049228743,inf,inf,inf,inf,inf,1,1,1,1,3,2,2,1,2,1,1,1,0,2,0,0
1777225938337000,1777225938337000,1777225652689000,47.397742,8.5455943,-0.02518147,-0.026073968,0.0005493164,-0.0005730107,0.0002314337,-487.9991,0.0011261965,-0.009569621,-0.044541974,-0.061019044,-2.551949e-05,-1.4980818e-05,4.813075e-06,-0.004077212,0.0009277537,0.017463228,0.017265452,0.000299215,0.014982972,0.0050611896,1.9044759e-05,487.9991,0.010009766,1e-04,-487.9991,0.12050667,0.11310262,0.08048489,0.049311686,inf,inf,inf,inf,inf,1,1,1,1,3,2,2,1,2,1,1,1,0,2,0,0
1777225938345000,1777225938345000,1777225652689000,47.397742,8.5455943,-0.02518523,-0.026054198,0.00033569336,-0.0005730107,0.0002314337,-487.9991,0.0010918523,-0.009521968,-0.044826135,-0.06111573,-2.551949e-05,-1.4980818e-05,4.813075e-06,-0.004133931,-0.0033752837,-0.042996366,0.017231315,0.00029851223,0.014948934,0.0050611896,1.9078067e-05,487.9991,0.010009766,1e-04,-487.9991,0.12091088,0.11335331,0.08077566,0.049394507,inf,inf,inf,inf,inf,1,1,1,1,3,2,2,1,2,1,1,1,0,2,0,0
1777225938353000,1777225938353000,1777225652689000,47.397742,8.5455943,-0.025188515,-0.026037887,9.1552734e-05,-0.0005730107,0.0002314337,-487.9991,0.0010780009,-0.009747688,-0.044819683,-0.0609228,-2.551949e-05,-1.4980818e-05,4.813075e-06,-0.0015799213,-0.037264265,-0.00652438,0.017178982,0.0002986191,0.014894631,0.0050611896,1.9122579e-05,487.9991,0.010009766,1e-04,-487.9991,0.121320136,0.113604836,0.081075825,0.049477197,inf,inf,inf,inf,inf,1,1,1,1,3,2,2,1,2,1,1,1,0,2,0,0
1777225938361000,1777225938361000,1777225652689000,47.397742,8.5455943,-0.025193362,-0.026026227,-0.00015258789,-0.0005730107,0.0002314337,-487.9991,0.00065189495,-0.009997269,-0.044924386,-0.060842097,-2.551949e-05,-1.4980818e-05,4.813075e-06,-0.0531194,-0.03997125,-0.02027815,0.017242713,0.000298726,0.014956385,0.0050611896,1.9167132e-05,487.9991,0.010009766,1e-04,-487.9991,0.12173216,0.1138572,0.081376076,0.04955976,inf,inf,inf,inf,inf,1,1,1,1,3,2,2,1,2,1,1,1,0,2,0,0
1777225938369000,1777225938369000,1777225652689000,47.397742,8.5455943,-0.025200782,-0.026019549,-0.00036621094,-0.0005730107,0.0002314337,-487.9991,0.0003552256,-0.010217627,-0.045091845,-0.06082323,-2.551949e-05,-1.4980818e-05,4.813075e-06,-0.036945432,-0.03604444,-0.028067267,0.017287295,0.00029883292,0.014998982,0.0050611896,1.921172e-05,487.9991,0.010009766,1e-04,-487.9991,0.12214694,0.11405031,0.08167714,0.049631536,inf,inf,inf,inf,inf,1,1,1,1,3,2,2,1,2,1,1,1,0,2,0,0
1777225938377000,1777225938377000,1777225652689000,47.397742,8.5455943,-0.025225408,-0.025994759,-0.00061035156,-0.0005730107,0.0002314337,-487.9991,0.00026716854,-0.010110074,-0.04517653,-0.060727015,-2.551949e-05,-1.4980818e-05,4.813075e-06,-0.010159959,0.0031895863,-0.018444842,0.017300032,0.00029892108,0.015009707,0.0050611896,1.897417e-05,487.9991,0.010009766,1e-04,-487.9991,0.11989786,0.112726785,0.08002484,0.049186118,inf,inf,inf,inf,inf,1,1,1,1,3,2,2,1,2,1,1,1,0,2,0,0
1777225938385000,1777225938385000,1777225652689000,47.397742,8.5455943,-0.025248472,-0.025970982,-0.0008239746,-0.0005730107,0.0002314337,-487.9991,0.00050540804,-0.009714886,-0.045156848,-0.06052761,-2.551949e-05,-1.4980818e-05,4.813075e-06,0.030596422,0.039457783,-0.0052424143,0.01735657,0.0002990281,0.015064064,0.0050611896,1.9018597e-05,487.9991,0.010009766,1e-04,-487.9991,0.12030022,0.112976216,0.080323875,0.04926913,inf,inf,inf,inf,inf,1,1,1,1,3,2,2,1,2,1,1,1,0,2,0,0
1777225938393000,1777225938393000,1777225652689000,47.397742,8.5455943,-0.025268286,-0.025947245,-0.0010681152,-0.0005730107,0.0002314337,-487.9991,0.0008966169,-0.009423096,-0.045023642,-0.06021587,-2.551949e-05,-1.4980818e-05,4.813075e-06,0.049691193,0.026835622,0.009101349,0.017380094,0.00029913502,0.01508539,0.0050611896,1.9063053e-05,487.9991,0.010009766,1e-04,-487.9991,0.12070532,0.11322648,0.080624394,0.049352013,inf,inf,inf,inf,inf,1,1,1,1,3,2,2,1,2,1,1,1,0,2,0,0
1777225938401000,1777225938401000,1777225652689000,47.397742,8.5455943,-0.02528509,-0.025925724,-0.0013122559,-0.0005730107,0.0002314337,-487.9991,0.0010115465,-0.009474236,-0.045184057,-0.06019893,-2.551949e-05,-1.4980818e-05,4.813075e-06,0.015133716,-0.015735576,-0.027452594,0.017390886,0.00029924206,0.015093962,0.0050611896,1.910755e-05,487.9991,0.010009766,1e-04,-487.9991,0.12111318,0.11347758,0.080924846,0.04943477,inf,inf,inf,inf,inf,1,1,1,1,3,2,2,1,2,1,1,1,0,2,0,0
1777225938409000,1777225938409000,1777225652689000,47.397742,8.5455943,-0.025301551,-0.025906933,-0.0015258789,-0.0005730107,0.0002314337,-487.9991,0.00074221386,-0.009408719,-0.045421977,-0.06026062,-2.551949e-05,-1.4980818e-05,4.813075e-06,-0.03303318,-0.0009139703,-0.036995854,0.017370826,0.00029853988,0.015071662,0.0050611896,1.914085e-05,487.9991,0.010009766,1e-04,-487.9991,0.12152139,0.113729514,0.08121694,0.0495174,inf,inf,inf,inf,inf,1,1,1,1,3,2,2,1,2,1,1,1,0,2,0,0
1777225938417000,1777225938417000,1777225652689000,47.397742,8.5455943,-0.025319105,-0.025889155,-0.0017700195,-0.0005730107,0.0002314337,-487.9991,0.00064515095,-0.009074541,-0.045521878,-0.060185377,-2.551949e-05,-1.4980818e-05,4.813075e-06,-0.011525102,0.03295405,-0.019602476,0.017396279,0.0002986467,0.0150951315,0.0050611896,1.9185414e-05,487.9991,0.010009766,1e-04,-487.9991,0.121934734,0.11398228,0.081518084,0.0495999,inf,inf,inf,inf,inf,1,1,1,1,3,2,2,1,2,1,1,1,0,2,0,0
1777225938425000,1777225938425000,1777225652689000,47.397742,8.5455943,-0.025359202,-0.025858775,-0.0020141602,-0.0005730107,0.0002314337,-487.9991,0.0013226947,-0.008888185,-0.045466512,-0.059955094,-2.551949e-05,-1.4980818e-05,4.813075e-06,0.086538814,0.0132064605,-0.0011008232,0.017433481,0.00029873446,0.015130334,0.0050611896,1.8950064e-05,487.9991,0.010009766,1e-04,-487.9991,0.11970071,0.112603724,0.0798794,0.04914565,inf,inf,inf,inf,inf,1,1,1,1,3,2,2,1,2,1,1,1,0,2,0,0
1777225938433000,1777225938433000,1777225652689000,47.397742,8.5455943,-0.02539513,-0.025830869,-0.0022277832,-0.0005730107,0.0002314337,-487.9991,0.0013049269,-0.008874969,-0.045369368,-0.05968506,-2.551949e-05,-1.4980818e-05,4.813075e-06,-0.0004278845,-0.008123841,0.0042854804,0.017471956,0.0002988414,0.015166678,0.0050611896,1.899447e-05,487.9991,0.010009766,1e-04,-487.9991,0.120101735,0.112852745,0.080179885,0.049228724,inf,inf,inf,inf,inf,1,1,1,1,3,2,2,1,2,1,1,1,0,2,0,0
1777225938441000,1777225938441000,1777225652689000,47.397742,8.5455943,-0.02543012,-0.025805634,-0.0024719238,-0.0005730107,0.0002314337,-487.9991,0.001330501,-0.0088414075,-0.045579955,-0.059724685,-2.551949e-05,-1.4980818e-05,4.813075e-06,0.004945407,-0.005276645,-0.034021676,0.017480526,0.00029894832,0.015173096,0.0050611896,1.9038907e-05,487.9991,0.010009766,1e-04,-487.9991,0.120505504,0.1131026,0.08048058,0.04931167,inf,inf,inf,inf,inf,1,1,1,1,3,2,2,1,2,1,1,1,0,2,0,0
1777225938449000,1777225938449000,1777225652689000,47.397742,8.5455943,-0.02546427,-0.025782855,-0.0027160645,-0.0005730107,0.0002314337,-487.9991,0.0011400331,-0.008754334,-0.045901764,-0.059877377,-2.551949e-05,-1.4980818e-05,4.813075e-06,-0.02210502,0.0016988477,-0.04776986,0.017432692,0.00029905533,0.01512309,0.0050611896,1.9083389e-05,487.9991,0.010009766,1e-04,-487.9991,0.12091204,0.1133533,0.08078173,0.049394492,inf,inf,inf,inf,inf,1,1,1,1,3,2,2,1,2,1,1,1,0,2,0,0
1777225938457000,1777225938457000,1777225652689000,47.397742,8.5455943,-0.025498906,-0.025761819,-0.002960205,-0.0005730107,0.0002314337,-487.9991,0.001113656,-0.008633529,-0.045817763,-0.059626013,-2.551949e-05,-1.4980818e-05,4.813075e-06,-0.0016431039,0.0061976356,0.0031073575,0.017391223,0.00029916238,0.015079429,0.0050611896,1.9127907e-05,487.9991,0.010009766,1e-04,-487.9991,0.12132133,0.11360482,0.081082925,0.049477182,inf,inf,inf,inf,inf,1,1,1,1,3,2,2,1,2,1,1,1,0,2,0,0
1777225938465000,1777225938465000,1777225652689000,47.397742,8.5455943,-0.025530383,-0.025742568,-0.0031738281,-0.0005730107,0.0002314337,-487.9991,0.0014156685,-0.008455688,-0.045682285,-0.059324887,-2.551949e-05,-1.4980818e-05,4.813075e-06,0.03936035,0.013598478,0.009688548,0.01732098,0.00029926948,0.015006976,0.0050611896,1.9172465e-05,487.9991,0.010009766,1e-04,-487.9991,0.121733375,0.11385719,0.081383735,0.049559746,inf,inf,inf,inf,inf,1,1,1,1,3,2,2,1,2,1,1,1,0,2,0,0
1777225938473000,1777225938473000,1777225652689000,47.397742,8.5455943,-0.025560867,-0.025723848,-0.0034179688,-0.0005730107,0.0002314337,-487.9991,0.0013724397,-0.008182401,-0.04557616,-0.05905384,-2.551949e-05,-1.4980818e-05,4.813075e-06,-0.0036860153,0.025742587,0.006126705,0.017321,0.0002992275,0.015004763,0.0050611896,1.921487e-05,487.9991,0.010009766,1e-04,-487.9991,0.12214777,0.11405029,0.08168228,0.049631525,inf,inf,inf,inf,inf,1,1,1,1,3,2,2,1,2,1,1,1,0,2,0,0
1777225938481000,1777225938481000,1777225652689000,47.397742,8.5455943,-0.02560814,-0.02569279,-0.0036621094,-0.0005730107,0.0002314337,-487.9991,0.0011847188,-0.007916322,-0.045620527,-0.05893426,-2.551949e-05,-1.4980818e-05,4.813075e-06,-0.020820558,0.023645824,-0.013626645,0.017266115,0.0002985059,0.014947314,0.0050611896,1.8966155e-05,487.9991,0.010009766,1e-04,-487.9991,0.11989635,0.11272676,0.08002099,0.049186107,inf,inf,inf,inf,inf,1,1,1,1,3,2,2,1,2,1,1,1,0,2,0,0
1777225938489000,1777225938489000,1777225652689000,47.397742,8.5455943,-0.025654562,-0.02566404,-0.00390625,-0.0005730107,0.0002314337,-487.9991,0.0012376923,-0.007950975,-0.04566662,-0.05881832,-2.551949e-05,-1.4980818e-05,4.813075e-06,0.009191216,-0.0136496695,-0.013674608,0.017219543,0.00029861266,0.014898324,0.0050611896,1.9010567e-05,487.9991,0.010009766,1e-04,-487.9991,0.12029869,0.11297619,0.08032028,0.04926912,inf,inf,inf,inf,inf,1,1,1,1,3,2,2,1,2,1,1,1,0,2,0,0
1777225938497000,1777225938497000,1777225652689000,47.397742,8.5455943,-0.02569868,-0.025637241,-0.0041503906,-0.0005730107,0.0002314337,-487.9991,0.0013148093,-0.007688237,-0.045814194,-0.058805738,-2.551949e-05,-1.4980818e-05,4.813075e-06,0.01213685,0.023808746,-0.02619717,0.017148474,0.00029871947,0.014824821,0.0050611896,1.9055016e-05,487.9991,0.010009766,1e-04,-487.9991,0.12070377,0.11322646,0.0806211,0.049352,inf,inf,inf,inf,inf,1,1,1,1,3,2,2,1,2,1,1,1,0,2,0,0
1777225938505000,1777225938505000,1777225652689000,47.397742,8.5455943,-0.025740989,-0.025610225,-0.0043640137,-0.0005730107,0.0002314337,-487.9991,0.0015340177,-0.0073061213,-0.04556545,-0.058398634,-2.551949e-05,-1.4980818e-05,4.813075e-06,0.029830601,0.039013702,0.023501458,0.017150972,0.00029882631,0.014824869,0.0050611896,1.9099502e-05,487.9991,0.010009766,1e-04,-487.9991,0.12111161,0.11347756,0.08092145,0.049434762,inf,inf,inf,inf,inf,1,1,1,1,3,2,2,1,2,1,1,1,0,2,0,0
1777225938513000,1777225938513000,1777225652689000,47.397742,8.5455943,-0.025778418,-0.02558382,-0.0046081543,-0.0005730107,0.0002314337,-487.9991,0.002028549,-0.007181066,-0.045370962,-0.058047544,-2.551949e-05,-1.4980818e-05,4.813075e-06,0.06418353,0.0071580163,0.016873235,0.017121438,0.00029893318,0.014792925,0.0050611896,1.9144025e-05,487.9991,0.010009766,1e-04,-487.9991,0.12152221,0.11372949,0.081222184,0.04951739,inf,inf,inf,inf,inf,1,1,1,1,3,2,2,1,2,1,1,1,0,2,0,0
1777225938521000,1777225938521000,1777225652689000,47.397742,8.5455943,-0.025811382,-0.025559777,-0.004852295,-0.0005730107,0.0002314337,-487.9991,0.0023042292,-0.00716789,-0.045584816,-0.058106486,-2.551949e-05,-1.4980818e-05,4.813075e-06,0.036765303,-0.0065580076,-0.034019347,0.017174916,0.0002990401,0.014844034,0.0050611896,1.9188588e-05,487.9991,0.010009766,1e-04,-487.9991,0.12193557,0.11398226,0.08152342,0.04959989,inf,inf,inf,inf,inf,1,1,1,1,3,2,2,1,2,1,1,1,0,2,0,0
1777225938529000,1777225938529000,1777225652689000,47.397742,8.5455943,-0.025846437,-0.02551791,-0.0050964355,-0.0005730107,0.0002314337,-487.9991,0.0025067804,-0.007169775,-0.046053648,-0.058417205,-2.551949e-05,-1.4980818e-05,4.813075e-06,0.027775485,-0.010039513,-0.06694346,0.01719746,0.000299128,0.014864249,0.0050611896,1.8953115e-05,487.9991,0.010009766,1e-04,-487.9991,0.11970143,0.1126037,0.079883896,0.04914564,inf,inf,inf,inf,inf,1,1,1,1,3,2,2,1,2,1,1,1,0,2,0,0
1777225938537000,1777225938537000,1777225652689000,47.397742,8.5455943,-0.02587811,-0.025480116,-0.005340576,-0.0005730107,0.0002314337,-487.9991,0.0026807,-0.0072930893,-0.04630375,-0.058511015,-2.551949e-05,-1.4980818e-05,4.813075e-06,0.024130236,-0.024921466,-0.03942521,0.017187126,0.000299235,0.014851499,0.0050611896,1.8997514e-05,487.9991,0.010009766,1e-04,-487.9991,0.12010249,0.112852715,0.080183715,0.049228717,inf,inf,inf,inf,inf,1,1,1,1,3,2,2,1,2,1,1,1,0,2,0,0
1777225938545000,1777225938545000,1777225652689000,47.397742,8.5455943,-0.02590871,-0.025445558,-0.005584717,-0.0005730107,0.0002314337,-487.9991,0.0024977685,-0.0073603936,-0.0462726,-0.058325388,-2.551949e-05,-1.4980818e-05,4.813075e-06,-0.020561801,-0.017639952,-0.004097353,0.017103225,0.0002985331,0.0147652235,0.0050611896,1.9030847e-05,487.9991,0.010009766,1e-04,-487.9991,0.120504,0.11310258,0.080474384,0.04931166,inf,inf,inf,inf,inf,1,1,1,1,3,2,2,1,2,1,1,1,0,2,0,0
1777225938553000,1777225938553000,1777225652689000,47.397742,8.5455943,-0.02593878,-0.025414646,-0.0058288574,-0.0005730107,0.0002314337,-487.9991,0.0024876005,-0.0074929395,-0.046405647,-0.05830573,-2.551949e-05,-1.4980818e-05,4.813075e-06,0.0009704073,-0.025511485,-0.024455132,0.0171195,0.0002986398,0.014779165,0.0050611896,1.9075309e-05,487.9991,0.010009766,1e-04,-487.9991,0.12091049,0.11335327,0.08077508,0.04939448,inf,inf,inf,inf,inf,1,1,1,1,3,2,2,1,2,1,1,1,0,2,0,0
1777225938561000,1777225938561000,1777225652689000,47.397742,8.5455943,-0.025967363,-0.025388038,-0.0060424805,-0.0005730107,0.0002314337,-487.9991,0.0026017928,-0.007815736,-0.04596075,-0.057709813,-2.551949e-05,-1.4980818e-05,4.813075e-06,0.016452063,-0.049015414,0.047951,0.017086724,0.00029874654,0.014744105,0.0050611896,1.911981e-05,487.9991,0.010009766,1e-04,-487.9991,0.12131974,0.11360479,0.08107609,0.049477167,inf,inf,inf,inf,inf,1,1,1,1,3,2,2,1,2,1,1,1,0,2,0,0
1777225938569000,1777225938569000,1777225652689000,47.397742,8.5455943,-0.025992444,-0.025366876,-0.006286621,-0.0005730107,0.0002314337,-487.9991,0.00297634,-0.008065846,-0.0456894,-0.05728906,-2.551949e-05,-1.4980818e-05,4.813075e-06,0.048937324,-0.039655253,0.026415566,0.017045299,0.00029885332,0.014700443,0.0050611896,1.9164348e-05,487.9991,0.010009766,1e-04,-487.9991,0.12173176,0.11385716,0.08137711,0.04955973,inf,inf,inf,inf,inf,1,1,1,1,3,2,2,1,2,1,1,1,0,2,0,0
1777225938577000,1777225938577000,1777225652689000,47.397742,8.5455943,-0.026014538,-0.025348846,-0.0065307617,-0.0005730107,0.0002314337,-487.9991,0.0030671263,-0.00797352,-0.045882333,-0.057330154,-2.551949e-05,-1.4980818e-05,4.813075e-06,0.013408817,0.0034102306,-0.031603497,0.017054943,0.00029896013,0.014707893,0.0050611896,1.9208923e-05,487.9991,0.010009766,1e-04,-487.9991,0.122146554,0.11405026,0.08167839,0.049631514,inf,inf,inf,inf,inf,1,1,1,1,3,2,2,1,2,1,1,1,0,2,0,0
1777225938585000,1777225938585000,1777225652689000,47.397742,8.5455943,-0.026050812,-0.025335036,-0.0067749023,-0.0005730107,0.0002314337,-487.9991,0.0031582087,-0.007974683,-0.04610059,-0.05739445,-2.551949e-05,-1.4980818e-05,4.813075e-06,0.014282787,-0.008608595,-0.03580376,0.017053988,0.0002990473,0.0147047825,0.0050611896,1.8971401e-05,487.9991,0.010009766,1e-04,-487.9991,0.11989746,0.11272674,0.08002654,0.049186096,inf,inf,inf,inf,inf,1,1,1,1,3,2,2,1,2,1,1,1,0,2,0,0
1777225938593000,1777225938593000,1777225652689000,47.397742,8.5455943,-0.026086004,-0.02532492,-0.0069885254,-0.0005730107,0.0002314337,-487.9991,0.0029886225,-0.008159714,-0.04616727,-0.057309035,-2.551949e-05,-1.4980818e-05,4.813075e-06,-0.018378587,-0.03132622,-0.016672535,0.017008252,0.0002991542,0.014656883,0.0050611896,1.9015813e-05,487.9991,0.010009766,1e-04,-487.9991,0.12029983,0.11297616,0.08032697,0.04926911,inf,inf,inf,inf,inf,1,1,1,1,3,2,2,1,2,1,1,1,0,2,0,0
1777225938601000,1777225938601000,1777225652689000,47.397742,8.5455943,-0.026119702,-0.0253167,-0.007232666,-0.0005730107,0.0002314337,-487.9991,0.0031586622,-0.007956778,-0.04584234,-0.056833778,-2.551949e-05,-1.4980818e-05,4.813075e-06,0.023997024,0.017427092,0.03245752,0.016962485,0.00029926124,0.014609002,0.0050611896,1.9060271e-05,487.9991,0.010009766,1e-04,-487.9991,0.12070494,0.11322643,0.080627866,0.04935199,inf,inf,inf,inf,inf,1,1,1,1,3,2,2,1,2,1,1,1,0,2,0,0
1777225938609000,1777225938609000,1777225652689000,47.397742,8.5455943,-0.026150767,-0.02531031,-0.0074768066,-0.0005730107,0.0002314337,-487.9991,0.003294603,-0.008043479,-0.046218183,-0.057060998,-2.551949e-05,-1.4980818e-05,4.813075e-06,0.01966173,-0.01852958,-0.054965723,0.01691138,0.00029936823,0.014555829,0.0050611896,1.9104758e-05,487.9991,0.010009766,1e-04,-487.9991,0.121112816,0.11347753,0.08092807,0.049434748,inf,inf,inf,inf,inf,1,1,1,1,3,2,2,1,2,1,1,1,0,2,0,0
1777225938617000,1777225938617000,1777225652689000,47.397742,8.5455943,-0.026179057,-0.025306819,-0.0077209473,-0.0005730107,0.0002314337,-487.9991,0.0035850552,-0.008011079,-0.046614435,-0.05731032,-2.551949e-05,-1.4980818e-05,4.813075e-06,0.039039776,-0.0033360522,-0.057347115,0.01691033,0.0002986659,0.014552753,0.0050611896,1.9138048e-05,487.9991,0.010009766,1e-04,-487.9991,0.12152103,0.11372946,0.08121916,0.049517374,inf,inf,inf,inf,inf,1,1,1,1,3,2,2,1,2,1,1,1,0,2,0,0
1777225938625000,1777225938625000,1777225652689000,47.397742,8.5455943,-0.0262053,-0.025305446,-0.007965088,-0.0005730107,0.0002314337,-487.9991,0.0035073175,-0.008045299,-0.046930667,-0.057481326,-2.551949e-05,-1.4980818e-05,4.813075e-06,-0.007050233,-0.011432223,-0.047180332,0.016917137,0.00029877265,0.0145570785,0.0050611896,1.91826e-05,487.9991,0.010009766,1e-04,-487.9991,0.12193437,0.11398223,0.081519775,0.049599875,inf,inf,inf,inf,inf,1,1,1,1,3,2,2,1,2,1,1,1,0,2,0,0
1777225938633000,1777225938633000,1777225652689000,47.397742,8.5455943,-0.026246592,-0.025293978,-0.008178711,-0.0005730107,0.0002314337,-487.9991,0.0033303124,-0.0077144094,-0.046666875,-0.05706412,-2.551949e-05,-1.4980818e-05,4.813075e-06,-0.018705195,0.033192683,0.024093779,0.017002733,0.0002988596,0.014640236,0.0050611896,1.8947285e-05,487.9991,0.010009766,1e-04,-487.9991,0.119700365,0.11260367,0.07988031,0.049145624,inf,inf,inf,inf,inf,1,1,1,1,3,2,2,1,2,1,1,1,0,2,0,0
1777225938641000,1777225938641000,1777225652689000,47.397742,8.5455943,-0.026286842,-0.025283407,-0.008422852,-0.0005730107,0.0002314337,-487.9991,0.0032732154,-0.007710263,-0.046692282,-0.05693816,-2.551949e-05,-1.4980818e-05,4.813075e-06,-0.0038068518,-0.0073944936,-0.011859926,0.016981764,0.00029896636,0.014616787,0.0050611896,1.8991672e-05,487.9991,0.010009766,1e-04,-487.9991,0.1201014,0.112852685,0.080180176,0.049228698,inf,inf,inf,inf,inf,1,1,1,1,3,2,2,1,2,1,1,1,0,2,0,0
1777225938649000,1777225938649000,1777225652689000,47.397742,8.5455943,-0.026325822,-0.025274482,-0.008666992,-0.0005730107,0.0002314337,-487.9991,0.0033175764,-0.0074779335,-0.04684345,-0.056939945,-2.551949e-05,-1.4980818e-05,4.813075e-06,0.008788768,0.021378465,-0.02738973,0.016958628,0.00029907323,0.01459123,0.0050611896,1.9036102e-05,487.9991,0.010009766,1e-04,-487.9991,0.12050517,0.11310254,0.080480605,0.049311645,inf,inf,inf,inf,inf,1,1,1,1,3,2,2,1,2,1,1,1,0,2,0,0
1777225938657000,1777225938657000,1777225652689000,47.397742,8.5455943,-0.026360786,-0.025266154,-0.008911133,-0.0005730107,0.0002314337,-487.9991,0.0038541832,-0.0073721246,-0.04694829,-0.056897353,-2.551949e-05,-1.4980818e-05,4.813075e-06,0.070232294,0.0058046165,-0.021413432,0.016920561,0.00029918025,0.014550792,0.0050611896,1.9080577e-05,487.9991,0.010009766,1e-04,-487.9991,0.120911695,0.11335323,0.08078036,0.049394462,inf,inf,inf,inf,inf,1,1,1,1,3,2,2,1,2,1,1,1,0,2,0,0
1777225938665000,1777225938665000,1777225652689000,47.397742,8.5455943,-0.026391432,-0.02525898,-0.009124756,-0.0005730107,0.0002314337,-487.9991,0.0038777797,-0.007200086,-0.04692527,-0.05672887,-2.551949e-05,-1.4980818e-05,4.813075e-06,0.0060226633,0.014323049,-0.0052503305,0.016914347,0.00029928717,0.014542259,0.0050611896,1.9125084e-05,487.9991,0.010009766,1e-04,-487.9991,0.12132097,0.11360476,0.08108065,0.049477153,inf,inf,inf,inf,inf,1,1,1,1,3,2,2,1,2,1,1,1,0,2,0,0
1777225938673000,1777225938673000,1777225652689000,47.397742,8.5455943,-0.026422666,-0.025253052,-0.0093688965,-0.0005730107,0.0002314337,-487.9991,0.0036807153,-0.007078004,-0.04676487,-0.056424934,-2.551949e-05,-1.4980818e-05,4.813075e-06,-0.021424131,0.008394753,0.012096948,0.016876196,0.00029924544,0.014501842,0.0050611896,1.9167452e-05,487.9991,0.010009766,1e-04,-487.9991,0.12173259,0.11385713,0.08138039,0.049559716,inf,inf,inf,inf,inf,1,1,1,1,3,2,2,1,2,1,1,1,0,2,0,0
1777225938681000,1777225938681000,1777225652689000,47.397742,8.5455943,-0.026455147,-0.025248438,-0.009613037,-0.0005730107,0.0002314337,-487.9991,0.0031602674,-0.0069570905,-0.046518866,-0.056034178,-2.551949e-05,-1.4980818e-05,4.813075e-06,-0.06192832,0.008470376,0.022861173,0.016872538,0.00029935234,0.014495488,0.0050611896,1.9212024e-05,487.9991,0.010009766,1e-04,-487.9991,0.1221474,0.11405023,0.081682846,0.049631495,inf,inf,inf,inf,inf,1,1,1,1,3,2,2,1,2,1,1,1,0,2,0,0
1777225938689000,1777225938689000,1777225652689000,47.397742,8.5455943,-0.026484735,-0.025226021,-0.009857178,-0.0005730107,0.0002314337,-487.9991,0.0030077323,-0.0065384405,-0.04647127,-0.05584475,-2.551949e-05,-1.4980818e-05,4.813075e-06,-0.016093137,0.044342786,-0.0028233042,0.016892346,0.00029943945,0.014512645,0.0050611896,1.8974366e-05,487.9991,0.010009766,1e-04,-487.9991,0.11989819,0.11272671,0.08003169,0.049186077,inf,inf,inf,inf,inf,1,1,1,1,3,2,2,1,2,1,1,1,0,2,0,0
1777225938697000,1777225938697000,1777225652689000,47.397742,8.5455943,-0.026514994,-0.025204537,-0.010070801,-0.0005730107,0.0002314337,-487.9991,0.0027096402,-0.006625953,-0.046698794,-0.05593216,-2.551949e-05,-1.4980818e-05,4.813075e-06,-0.03436391,-0.01868634,-0.03701774,0.016882248,0.0002995464,0.014499843,0.0050611896,1.9018775e-05,487.9991,0.010009766,1e-04,-487.9991,0.120300576,0.112976134,0.08033143,0.04926909,inf,inf,inf,inf,inf,1,1,1,1,3,2,2,1,2,1,1,1,0,2,0,0
1777225938705000,1777225938705000,1777225652689000,47.397742,8.5455943,-0.026544936,-0.02518555,-0.010314941,-0.0005730107,0.0002314337,-487.9991,0.002723157,-0.0065437895,-0.04704727,-0.056142204,-2.551949e-05,-1.4980818e-05,4.813075e-06,0.004507261,0.002763701,-0.051947773,0.016910534,0.00029965347,0.014525475,0.0050611896,1.9063222e-05,487.9991,0.010009766,1e-04,-487.9991,0.12070572,0.1132264,0.08063196,0.049351975,inf,inf,inf,inf,inf,1,1,1,1,3,2,2,1,2,1,1,1,0,2,0,0
1777225938713000,1777225938713000,1777225652689000,47.397742,8.5455943,-0.026573166,-0.025168827,-0.010559082,-0.0005730107,0.0002314337,-487.9991,0.0028547568,-0.006569628,-0.04696159,-0.055919778,-2.551949e-05,-1.4980818e-05,4.813075e-06,0.019189838,-0.010506579,0.0025057232,0.016899426,0.00029976052,0.014511751,0.0050611896,1.9107703e-05,487.9991,0.010009766,1e-04,-487.9991,0.12111361,0.1134775,0.08093131,0.049434733,inf,inf,inf,inf,inf,1,1,1,1,3,2,2,1,2,1,1,1,0,2,0,0
1777225938721000,1777225938721000,1777225652689000,47.397742,8.5455943,-0.026599444,-0.025153074,-0.010803223,-0.0005730107,0.0002314337,-487.9991,0.0028384298,-0.0062365783,-0.04674288,-0.055566058,-2.551949e-05,-1.4980818e-05,4.813075e-06,0.0006294085,0.034586087,0.019314231,0.016908385,0.00029986762,0.014518157,0.0050611896,1.9152223e-05,487.9991,0.010009766,1e-04,-487.9991,0.12152426,0.11372943,0.08123152,0.04951736,inf,inf,inf,inf,inf,1,1,1,1,3,2,2,1,2,1,1,1,0,2,0,0
1777225938729000,1777225938729000,1777225652689000,47.397742,8.5455943,-0.026624875,-0.02513717,-0.011047363,-0.0005730107,0.0002314337,-487.9991,0.002813988,-0.006085758,-0.04666463,-0.055354513,-2.551949e-05,-1.4980818e-05,4.813075e-06,-0.00045085093,0.012032135,0.0019306316,0.016906606,0.00029997475,0.014513865,0.0050611896,1.9196781e-05,487.9991,0.010009766,1e-04,-487.9991,0.12193768,0.1139822,0.0815331,0.049599864,inf,inf,inf,inf,inf,1,1,1,1,3,2,2,1,2,1,1,1,0,2,0,0
1777225938737000,1777225938737000,1777225652689000,47.397742,8.5455943,-0.026644923,-0.025099006,-0.011291504,-0.0005730107,0.0002314337,-487.9991,0.0030700106,-0.006275999,-0.04690903,-0.05546438,-2.551949e-05,-1.4980818e-05,4.813075e-06,0.03455993,-0.032375716,-0.03941962,0.016866628,0.0003000627,0.014471423,0.0050611896,1.896104e-05,487.9991,0.010009766,1e-04,-487.9991,0.11970326,0.11260365,0.07989347,0.04914561,inf,inf,inf,inf,inf,1,1,1,1,3,2,2,1,2,1,1,1,0,2,0,0
1777225938745000,1777225938745000,1777225652689000,47.397742,8.5455943,-0.02666254,-0.025064124,-0.011505127,-0.0005730107,0.0002314337,-487.9991,0.003202793,-0.00620052,-0.046910465,-0.055332992,-2.551949e-05,-1.4980818e-05,4.813075e-06,0.019088602,0.0011013562,-0.008849426,0.01677131,0.00030016992,0.014373541,0.0050611896,1.9005434e-05,487.9991,0.010009766,1e-04,-487.9991,0.120104365,0.11285266,0.0801934,0.049228683,inf,inf,inf,inf,inf,1,1,1,1,3,2,2,1,2,1,1,1,0,2,0,0
1777225938753000,1777225938753000,1777225652689000,47.397742,8.5455943,-0.02667903,-0.025027908,-0.011749268,-0.0005730107,0.0002314337,-487.9991,0.003627467,-0.005828992,-0.046798125,-0.055089545,-2.551949e-05,-1.4980818e-05,4.813075e-06,0.055960093,0.03797424,0.0055665146,0.016752617,0.00029946113,0.014352327,0.0050611896,1.9038718e-05,487.9991,0.010009766,1e-04,-487.9991,0.12050592,0.11310252,0.08048355,0.04931163,inf,inf,inf,inf,inf,1,1,1,1,3,2,2,1,2,1,1,1,0,2,0,0
1777225938761000,1777225938761000,1777225652689000,47.397742,8.5455943,-0.026691232,-0.02499321,-0.011993408,-0.0005730107,0.0002314337,-487.9991,0.0039760717,-0.0058779083,-0.046793193,-0.05495517,-2.551949e-05,-1.4980818e-05,4.813075e-06,0.046374466,-0.014315863,-0.0076713036,0.016808389,0.00029956814,0.014408866,0.0050611896,1.9083185e-05,487.9991,0.010009766,1e-04,-487.9991,0.12091246,0.11335321,0.0807849,0.04939445,inf,inf,inf,inf,inf,1,1,1,1,3,2,2,1,2,1,1,1,0,2,0,0
1777225938769000,1777225938769000,1777225652689000,47.397742,8.5455943,-0.02670022,-0.024960995,-0.012237549,-0.0005730107,0.0002314337,-487.9991,0.0041852235,-0.005807573,-0.046899732,-0.054933798,-2.551949e-05,-1.4980818e-05,4.813075e-06,0.028865464,0.00084957166,-0.021421814,0.016831134,0.00029967513,0.014432423,0.0050611896,1.9127683e-05,487.9991,0.010009766,1e-04,-487.9991,0.12132176,0.11360474,0.081086665,0.04947714,inf,inf,inf,inf,inf,1,1,1,1,3,2,2,1,2,1,1,1,0,2,0,0
1777225938777000,1777225938777000,1777225652689000,47.397742,8.5455943,-0.026707893,-0.024929838,-0.012481689,-0.0005730107,0.0002314337,-487.9991,0.004092574,-0.005551707,-0.047050565,-0.054958127,-2.551949e-05,-1.4980818e-05,4.813075e-06,-0.008930214,0.024291208,-0.026780644,0.016755763,0.00029978217,0.01435791,0.0050611896,1.9172221e-05,487.9991,0.010009766,1e-04,-487.9991,0.12173384,0.1138571,0.08138833,0.049559705,inf,inf,inf,inf,inf,1,1,1,1,3,2,2,1,2,1,1,1,0,2,0,0
1777225938785000,1777225938785000,1777225652689000,47.397742,8.5455943,-0.026714839,-0.024900323,-0.01272583,-0.0005730107,0.0002314337,-487.9991,0.0041156933,-0.005566538,-0.046867397,-0.054647822,-2.551949e-05,-1.4980818e-05,4.813075e-06,0.005471409,-0.009305018,0.015071592,0.016687794,0.00029988927,0.014290847,0.0050611896,1.9216797e-05,487.9991,0.010009766,1e-04,-487.9991,0.122148685,0.11405021,0.08168878,0.04963148,inf,inf,inf,inf,inf,1,1,1,1,3,2,2,1,2,1,1,1,0,2,0,0
1777225938793000,1777225938793000,1777225652689000,47.397742,8.5455943,-0.026739443,-0.024848578,-0.012969971,-0.0005730107,0.0002314337,-487.9991,0.0038142065,-0.005516058,-0.04657573,-0.0542286,-2.551949e-05,-1.4980818e-05,4.813075e-06,-0.03403795,-0.002819478,0.027649568,0.01668056,0.00029997673,0.014284566,0.0050611896,1.897899e-05,487.9991,0.010009766,1e-04,-487.9991,0.11989932,0.11272669,0.080036655,0.049186066,inf,inf,inf,inf,inf,1,1,1,1,3,2,2,1,2,1,1,1,0,2,0,0
1777225938801000,1777225938801000,1777225652689000,47.397742,8.5455943,-0.026764832,-0.024799129,-0.013214111,-0.0005730107,0.0002314337,-487.9991,0.0036204425,-0.005328113,-0.046984557,-0.054511398,-2.551949e-05,-1.4980818e-05,4.813075e-06,-0.020664763,0.014645478,-0.05971314,0.016645642,0.00030008395,0.014250524,0.0050611896,1.9023404e-05,487.9991,0.010009766,1e-04,-487.9991,0.12030174,0.11297612,0.08033703,0.04926908,inf,inf,inf,inf,inf,1,1,1,1,3,2,2,1,2,1,1,1,0,2,0,0
1777225938809000,1777225938809000,1777225652689000,47.397742,8.5455943,-0.026789442,-0.024751673,-0.013458252,-0.0005730107,0.0002314337,-487.9991,0.0036949625,-0.0054343157,-0.046911735,-0.054314002,-2.551949e-05,-1.4980818e-05,4.813075e-06,0.012778893,-0.021850044,0.00068685034,0.01672253,0.00030019108,0.014328349,0.0050611896,1.9067851e-05,487.9991,0.010009766,1e-04,-487.9991,0.12070691,0.11322638,0.0806378,0.049351968,inf,inf,inf,inf,inf,1,1,1,1,3,2,2,1,2,1,1,1,0,2,0,0
1777225938817000,1777225938817000,1777225652689000,47.397742,8.5455943,-0.02681113,-0.024707546,-0.013671875,-0.0005730107,0.0002314337,-487.9991,0.003902348,-0.0053916937,-0.04657683,-0.053855937,-2.551949e-05,-1.4980818e-05,4.813075e-06,0.0292377,-0.0030165717,0.033635642,0.01685795,0.00029948264,0.014464745,0.0050611896,1.910111e-05,487.9991,0.010009766,1e-04,-487.9991,0.121112466,0.113477476,0.08092892,0.04943472,inf,inf,inf,inf,inf,1,1,1,1,3,2,2,1,2,1,1,1,0,2,0,0
1777225938825000,1777225938825000,1777225652689000,47.397742,8.5455943,-0.02683052,-0.024665859,-0.013916016,-0.0005730107,0.0002314337,-487.9991,0.003984833,-0.0053964597,-0.046549913,-0.053707268,-2.551949e-05,-1.4980818e-05,4.813075e-06,0.013537691,-0.008685215,-0.00467943,0.01690365,0.00029958965,0.014511697,0.0050611896,1.914563e-05,487.9991,0.010009766,1e-04,-487.9991,0.1215231,0.11372941,0.081229135,0.049517352,inf,inf,inf,inf,inf,1,1,1,1,3,2,2,1,2,1,1,1,0,2,0,0
1777225938833000,1777225938833000,1777225652689000,47.397742,8.5455943,-0.026847493,-0.024627669,-0.014160156,-0.0005730107,0.0002314337,-487.9991,0.0042093876,-0.0056956094,-0.046587028,-0.053624064,-2.551949e-05,-1.4980818e-05,4.813075e-06,0.03121366,-0.045235515,-0.012505799,0.016896049,0.0002996967,0.014505399,0.0050611896,1.9190184e-05,487.9991,0.010009766,1e-04,-487.9991,0.12193649,0.11398218,0.08152926,0.049599852,inf,inf,inf,inf,inf,1,1,1,1,3,2,2,1,2,1,1,1,0,2,0,0
1777225938841000,1777225938841000,1777225652689000,47.397742,8.5455943,-0.02686768,-0.024571672,-0.014404297,-0.0005730107,0.0002314337,-487.9991,0.0044479254,-0.0057149157,-0.04650394,-0.053413212,-2.551949e-05,-1.4980818e-05,4.813075e-06,0.033386137,-0.011707179,0.0013066455,0.016884085,0.0002997841,0.014494799,0.0050611896,1.8954619e-05,487.9991,0.010009766,1e-04,-487.9991,0.11970223,0.11260363,0.07988908,0.049145598,inf,inf,inf,inf,inf,1,1,1,1,3,2,2,1,2,1,1,1,0,2,0,0
1777225938849000,1777225938849000,1777225652689000,47.397742,8.5455943,-0.026885279,-0.024516582,-0.01461792,-0.0005730107,0.0002314337,-487.9991,0.004536123,-0.0052197897,-0.04640746,-0.05319074,-2.551949e-05,-1.4980818e-05,4.813075e-06,0.014505606,0.052880876,0.0031888483,0.016858311,0.00029989122,0.0144703295,0.0050611896,1.8999011e-05,487.9991,0.010009766,1e-04,-487.9991,0.12010331,0.11285264,0.080189325,0.04922867,inf,inf,inf,inf,inf,1,1,1,1,3,2,2,1,2,1,1,1,0,2,0,0
1777225938857000,1777225938857000,1777225652689000,47.397742,8.5455943,-0.026901418,-0.024462262,-0.014862061,-0.0005730107,0.0002314337,-487.9991,0.004485148,-0.0052126,-0.046408992,-0.05306793,-2.551949e-05,-1.4980818e-05,4.813075e-06,-0.0029827047,-0.007838443,-0.008859205,0.016884772,0.00029999838,0.014498146,0.0050611896,1.9043442e-05,487.9991,0.010009766,1e-04,-487.9991,0.12050713,0.113102496,0.08049032,0.049311616,inf,inf,inf,inf,inf,1,1,1,1,3,2,2,1,2,1,1,1,0,2,0,0
1777225938865000,1777225938865000,1777225652689000,47.397742,8.5455943,-0.026917394,-0.024410762,-0.015075684,-0.0005730107,0.0002314337,-487.9991,0.004335078,-0.005206736,-0.04601946,-0.05255564,-2.551949e-05,-1.4980818e-05,4.813075e-06,-0.015462698,-0.0077372384,0.04022056,0.016832242,0.0003001056,0.014447043,0.0050611896,1.9087911e-05,487.9991,0.010009766,1e-04,-487.9991,0.1209137,0.113353185,0.08079052,0.049394432,inf,inf,inf,inf,inf,1,1,1,1,3,2,2,1,2,1,1,1,0,2,0,0
1777225938873000,1777225938873000,1777225652689000,47.397742,8.5455943,-0.026933236,-0.024361793,-0.015319824,-0.0005730107,0.0002314337,-487.9991,0.0043116133,-0.0052397433,-0.04600022,-0.052415226,-2.551949e-05,-1.4980818e-05,4.813075e-06,0.00041126803,-0.012460158,-0.005873851,0.01680315,0.00030006343,0.014419433,0.0050611896,1.9130253e-05,487.9991,0.010009766,1e-04,-487.9991,0.12132263,0.11360472,0.081088826,0.049477123,inf,inf,inf,inf,inf,1,1,1,1,3,2,2,1,2,1,1,1,0,2,0,0
1777225938881000,1777225938881000,1777225652689000,47.397742,8.5455943,-0.026946533,-0.024315694,-0.015533447,-0.0005730107,0.0002314337,-487.9991,0.00470626,-0.005246975,-0.046135712,-0.052431133,-2.551949e-05,-1.4980818e-05,4.813075e-06,0.052593812,-0.008974673,-0.025028827,0.016700504,0.00030017048,0.0143172,0.0050611896,1.9174782e-05,487.9991,0.010009766,1e-04,-487.9991,0.12173472,0.11385708,0.081389524,0.049559686,inf,inf,inf,inf,inf,1,1,1,1,3,2,2,1,2,1,1,1,0,2,0,0
1777225938889000,1777225938889000,1777225652689000,47.397742,8.5455943,-0.026956717,-0.024273278,-0.015777588,-0.0005730107,0.0002314337,-487.9991,0.004654534,-0.0052346056,-0.045959983,-0.052132335,-2.551949e-05,-1.4980818e-05,4.813075e-06,-0.0033383106,-0.0060397633,0.013887416,0.01666819,0.0002994626,0.014285345,0.0050611896,1.9207993e-05,487.9991,0.010009766,1e-04,-487.9991,0.122147076,0.11405019,0.08168191,0.04963147,inf,inf,inf,inf,inf,1,1,1,1,3,2,2,1,2,1,1,1,0,2,0,0
1777225938897000,1777225938897000,1777225652689000,47.397742,8.5455943,-0.02698369,-0.024205554,-0.015991211,-0.0005730107,0.0002314337,-487.9991,0.004505345,-0.0054170187,-0.04547117,-0.051506188,-2.551949e-05,-1.4980818e-05,4.813075e-06,-0.014536175,-0.03215474,0.05156593,0.016750619,0.0002995494,0.014366409,0.0050611896,1.897043e-05,487.9991,0.010009766,1e-04,-487.9991,0.11989791,0.112726666,0.08003017,0.049186055,inf,inf,inf,inf,inf,1,1,1,1,3,2,2,1,2,1,1,1,0,2,0,0
1777225938905000,1777225938905000,1777225652689000,47.397742,8.5455943,-0.027010385,-0.024143577,-0.016174316,-0.0005730107,0.0002314337,-487.9991,0.004249599,-0.0058332034,-0.045300413,-0.05120037,-2.551949e-05,-1.4980818e-05,4.813075e-06,-0.027966097,-0.061092276,0.012032221,0.016819267,0.0002996563,0.014433604,0.0050611896,1.9014826e-05,487.9991,0.010009766,1e-04,-487.9991,0.120300286,0.1129761,0.080329984,0.04926907,inf,inf,inf,inf,inf,1,1,1,1,3,2,2,1,2,1,1,1,0,2,0,0
1777225938913000,1777225938913000,1777225652689000,47.397742,8.5455943,-0.027038233,-0.024088467,-0.01638794,-0.0005730107,0.0002314337,-487.9991,0.003972565,-0.00628031,-0.045490548,-0.051257674,-2.551949e-05,-1.4980818e-05,4.813075e-06,-0.030735396,-0.064674914,-0.032861713,0.016853744,0.00029976323,0.014466677,0.0050611896,1.9059258e-05,487.9991,0.010009766,1e-04,-487.9991,0.12070542,0.11322636,0.0806303,0.049351953,inf,inf,inf,inf,inf,1,1,1,1,3,2,2,1,2,1,1,1,0,2,0,0
1777225938921000,1777225938921000,1777225652689000,47.397742,8.5455943,-0.02706589,-0.024037598,-0.016601562,-0.0005730107,0.0002314337,-487.9991,0.0038249413,-0.0061497013,-0.04554282,-0.051179282,-2.551949e-05,-1.4980818e-05,4.813075e-06,-0.014666669,0.0078106956,-0.015418044,0.016884034,0.0002998702,0.014495533,0.0050611896,1.9103729e-05,487.9991,0.010009766,1e-04,-487.9991,0.1211133,0.11347746,0.08093114,0.04943471,inf,inf,inf,inf,inf,1,1,1,1,3,2,2,1,2,1,1,1,0,2,0,0
1777225938929000,1777225938929000,1777225652689000,47.397742,8.5455943,-0.02709416,-0.023989053,-0.016815186,-0.0005730107,0.0002314337,-487.9991,0.0035690654,-0.0061108796,-0.045635134,-0.051143005,-2.551949e-05,-1.4980818e-05,4.813075e-06,-0.028299157,-0.0033991039,-0.020217614,0.016828056,0.00029997726,0.014438087,0.0050611896,1.9148238e-05,487.9991,0.010009766,1e-04,-487.9991,0.12152395,0.113729395,0.081232235,0.04951734,inf,inf,inf,inf,inf,1,1,1,1,3,2,2,1,2,1,1,1,0,2,0,0
1777225938937000,1777225938937000,1777225652689000,47.397742,8.5455943,-0.027123187,-0.023944113,-0.017028809,-0.0005730107,0.0002314337,-487.9991,0.0031231574,-0.0063723125,-0.04582039,-0.051201697,-2.551949e-05,-1.4980818e-05,4.813075e-06,-0.052151058,-0.040678915,-0.031635627,0.016787013,0.00030008433,0.014395541,0.0050611896,1.9192783e-05,487.9991,0.010009766,1e-04,-487.9991,0.121937364,0.11398216,0.081532784,0.04959984,inf,inf,inf,inf,inf,1,1,1,1,3,2,2,1,2,1,1,1,0,2,0,0
1777225938945000,1777225938945000,1777225652689000,47.397742,8.5455943,-0.027161587,-0.023883551,-0.017211914,-0.0005730107,0.0002314337,-487.9991,0.0027484698,-0.0063809315,-0.04565507,-0.05088193,-2.551949e-05,-1.4980818e-05,4.813075e-06,-0.04276918,-0.010301468,0.010301824,0.01681318,0.00030017173,0.0144201685,0.0050611896,1.8957131e-05,487.9991,0.010009766,1e-04,-487.9991,0.11970299,0.112603605,0.079891734,0.049145587,inf,inf,inf,inf,inf,1,1,1,1,3,2,2,1,2,1,1,1,0,2,0,0
1777225938953000,1777225938953000,1777225652689000,47.397742,8.5455943,-0.027200714,-0.02382544,-0.01739502,-0.0005730107,0.0002314337,-487.9991,0.0024711906,-0.0062124925,-0.04599906,-0.051074613,-2.551949e-05,-1.4980818e-05,4.813075e-06,-0.030706402,0.012131017,-0.053112857,0.01679151,0.00029946375,0.014396811,0.0050611896,1.8990439e-05,487.9991,0.010009766,1e-04,-487.9991,0.12010185,0.11285262,0.08018342,0.049228657,inf,inf,inf,inf,inf,1,1,1,1,3,2,2,1,2,1,1,1,0,2,0,0
1777225938961000,1777225938961000,1777225652689000,47.397742,8.5455943,-0.02723959,-0.023769582,-0.017608643,-0.0005730107,0.0002314337,-487.9991,0.002508012,-0.006121166,-0.04641218,-0.05133944,-2.551949e-05,-1.4980818e-05,4.813075e-06,0.008450456,0.002765624,-0.06151199,0.016809432,0.00029957062,0.014412839,0.0050611896,1.9034851e-05,487.9991,0.010009766,1e-04,-487.9991,0.120505646,0.11310247,0.08048327,0.049311604,inf,inf,inf,inf,inf,1,1,1,1,3,2,2,1,2,1,1,1,0,2,0,0
1777225938969000,1777225938969000,1777225652689000,47.397742,8.5455943,-0.027276253,-0.023716599,-0.017791748,-0.0005730107,0.0002314337,-487.9991,0.0025398314,-0.006179486,-0.04646821,-0.051250163,-2.551949e-05,-1.4980818e-05,4.813075e-06,0.0077226344,-0.0156753,-0.016640404,0.016758187,0.00029967757,0.01435966,0.0050611896,1.9079305e-05,487.9991,0.010009766,1e-04,-487.9991,0.12091218,0.11335317,0.0807828,0.04939442,inf,inf,inf,inf,inf,1,1,1,1,3,2,2,1,2,1,1,1,0,2,0,0
1777225938977000,1777225938977000,1777225652689000,47.397742,8.5455943,-0.027312877,-0.023667034,-0.018005371,-0.0005730107,0.0002314337,-487.9991,0.0023564952,-0.006116911,-0.04676053,-0.051400136,-2.551949e-05,-1.4980818e-05,4.813075e-06,-0.019273423,-0.00031078022,-0.045948192,0.016752707,0.0002997845,0.014352215,0.0050611896,1.9123792e-05,487.9991,0.010009766,1e-04,-487.9991,0.12132148,0.113604695,0.08108335,0.049477115,inf,inf,inf,inf,inf,1,1,1,1,3,2,2,1,2,1,1,1,0,2,0,0
1777225938985000,1777225938985000,1777225652689000,47.397742,8.5455943,-0.027349269,-0.023618642,-0.018188477,-0.0005730107,0.0002314337,-487.9991,0.0020627296,-0.005776851,-0.0468053,-0.051305436,-2.551949e-05,-1.4980818e-05,4.813075e-06,-0.03317732,0.034618326,-0.014781951,0.016803779,0.00029989154,0.014401272,0.0050611896,1.9168325e-05,487.9991,0.010009766,1e-04,-487.9991,0.12173354,0.11385706,0.0813844,0.04955968,inf,inf,inf,inf,inf,1,1,1,1,3,2,2,1,2,1,1,1,0,2,0,0
1777225938993000,1777225938993000,1777225652689000,47.397742,8.5455943,-0.02738774,-0.02357005,-0.0184021,-0.0005730107,0.0002314337,-487.9991,0.0016661964,-0.005283631,-0.046754383,-0.051112823,-2.551949e-05,-1.4980818e-05,4.813075e-06,-0.04611845,0.05400614,-0.0027888452,0.016777154,0.00029999865,0.014372593,0.0050611896,1.9212892e-05,487.9991,0.010009766,1e-04,-487.9991,0.122148365,0.114050165,0.08168546,0.04963146,inf,inf,inf,inf,inf,1,1,1,1,3,2,2,1,2,1,1,1,0,2,0,0
1777225939001000,1777225939001000,1777225652689000,47.397742,8.5455943,-0.027444653,-0.023501905,-0.018585205,-0.0005730107,0.0002314337,-487.9991,0.0015573078,-0.0052309143,-0.046704326,-0.050898075,-2.551949e-05,-1.4980818e-05,4.813075e-06,-0.009029984,-0.0022536768,-0.004652887,0.01676545,0.00030008558,0.014358779,0.0050611896,1.8975217e-05,487.9991,0.010009766,1e-04,-487.9991,0.119899064,0.11272665,0.080033295,0.049186047,inf,inf,inf,inf,inf,1,1,1,1,3,2,2,1,2,1,1,1,0,2,0,0
1777225939009000,1777225939009000,1777225652689000,47.397742,8.5455943,-0.027500251,-0.023437668,-0.01876831,-0.0005730107,0.0002314337,-487.9991,0.001518525,-0.0052671167,-0.046785768,-0.05081872,-2.551949e-05,-1.4980818e-05,4.813075e-06,-0.00039402707,-0.01309748,-0.020823905,0.016830655,0.00030019268,0.014421724,0.0050611896,1.9019619e-05,487.9991,0.010009766,1e-04,-487.9991,0.12030146,0.11297608,0.0803332,0.049269058,inf,inf,inf,inf,inf,1,1,1,1,3,2,2,1,2,1,1,1,0,2,0,0
1777225939017000,1777225939017000,1777225652689000,47.397742,8.5455943,-0.0275549,-0.023376597,-0.018951416,-0.0005730107,0.0002314337,-487.9991,0.0013540601,-0.0052632084,-0.046821333,-0.050697323,-2.551949e-05,-1.4980818e-05,4.813075e-06,-0.016222904,-0.007821883,-0.01483038,0.016891642,0.0003002998,0.014480405,0.0050611896,1.9064057e-05,487.9991,0.010009766,1e-04,-487.9991,0.12070662,0.11322634,0.08063234,0.04935194,inf,inf,inf,inf,inf,1,1,1,1,3,2,2,1,2,1,1,1,0,2,0,0
1777225939025000,1777225939025000,1777225652689000,47.397742,8.5455943,-0.027607178,-0.023317406,-0.019134521,-0.0005730107,0.0002314337,-487.9991,0.0011155453,-0.0048624836,-0.046968568,-0.050691377,-2.551949e-05,-1.4980818e-05,4.813075e-06,-0.026127867,0.04211747,-0.028537119,0.016949395,0.00029959137,0.014535796,0.0050611896,1.9097317e-05,487.9991,0.010009766,1e-04,-487.9991,0.12111215,0.113477446,0.08092343,0.049434695,inf,inf,inf,inf,inf,1,1,1,1,3,2,2,1,2,1,1,1,0,2,0,0
1777225939033000,1777225939033000,1777225652689000,47.397742,8.5455943,-0.027660167,-0.023259364,-0.019317627,-0.0005730107,0.0002314337,-487.9991,0.00073253096,-0.004852517,-0.046902735,-0.05047603,-2.551949e-05,-1.4980818e-05,4.813075e-06,-0.044289995,-0.0064779166,-0.001659151,0.01703587,0.00029969832,0.014618965,0.0050611896,1.9141826e-05,487.9991,0.010009766,1e-04,-487.9991,0.12152276,0.11372937,0.08122465,0.049517326,inf,inf,inf,inf,inf,1,1,1,1,3,2,2,1,2,1,1,1,0,2,0,0
1777225939041000,1777225939041000,1777225652689000,47.397742,8.5455943,-0.027714694,-0.023204617,-0.019500732,-0.0005730107,0.0002314337,-487.9991,0.00048082112,-0.004904239,-0.0463313,-0.049758647,-2.551949e-05,-1.4980818e-05,4.813075e-06,-0.027978448,-0.013949909,0.061778814,0.01705418,0.00029980525,0.014633955,0.0050611896,1.9186366e-05,487.9991,0.010009766,1e-04,-487.9991,0.12193614,0.11398215,0.08152514,0.049599826,inf,inf,inf,inf,inf,1,1,1,1,3,2,2,1,2,1,1,1,0,2,0,0
1777225939049000,1777225939049000,1777225652689000,47.397742,8.5455943,-0.027774563,-0.023141185,-0.019683838,-0.0005730107,0.0002314337,-487.9991,0.00076730206,-0.0050232634,-0.04614611,-0.049413186,-2.551949e-05,-1.4980818e-05,4.813075e-06,0.039858263,-0.023212671,0.012084375,0.016976666,0.00029989198,0.014553089,0.0050611896,1.8950956e-05,487.9991,0.010009766,1e-04,-487.9991,0.11970195,0.1126036,0.079884075,0.04914558,inf,inf,inf,inf,inf,1,1,1,1,3,2,2,1,2,1,1,1,0,2,0,0
1777225939057000,1777225939057000,1777225652689000,47.397742,8.5455943,-0.027831143,-0.023080507,-0.019836426,-0.0005730107,0.0002314337,-487.9991,0.000845591,-0.004851976,-0.045881316,-0.048992377,-2.551949e-05,-1.4980818e-05,4.813075e-06,0.013722188,0.013334887,0.022307036,0.016941866,0.000299999,0.014514878,0.0050611896,1.8995335e-05,487.9991,0.010009766,1e-04,-487.9991,0.12010302,0.11285261,0.08018328,0.049228653,inf,inf,inf,inf,inf,1,1,1,1,3,2,2,1,2,1,1,1,0,2,0,0
1777225939065000,1777225939065000,1777225652689000,47.397742,8.5455943,-0.027885694,-0.023021556,-0.020019531,-0.0005730107,0.0002314337,-487.9991,0.0009314998,-0.004650123,-0.04553242,-0.048491593,-2.551949e-05,-1.4980818e-05,4.813075e-06,0.01456734,0.017406464,0.033084765,0.017002877,0.00030010604,0.014572503,0.0050611896,1.9039751e-05,487.9991,0.010009766,1e-04,-487.9991,0.120506816,0.113102466,0.08048368,0.0493116,inf,inf,inf,inf,inf,1,1,1,1,3,2,2,1,2,1,1,1,0,2,0,0
1777225939073000,1777225939073000,1777225652689000,47.397742,8.5455943,-0.027937151,-0.022963414,-0.02017212,-0.0005730107,0.0002314337,-487.9991,0.0010415679,-0.0044617956,-0.04519038,-0.048001643,-2.551949e-05,-1.4980818e-05,4.813075e-06,0.017286647,0.015947357,0.03248546,0.017031942,0.00030006404,0.014598208,0.0050611896,1.9082057e-05,487.9991,0.010009766,1e-04,-487.9991,0.12091297,0.113353156,0.08078235,0.049394418,inf,inf,inf,inf,inf,1,1,1,1,3,2,2,1,2,1,1,1,0,2,0,0
1777225939081000,1777225939081000,1777225652689000,47.397742,8.5455943,-0.027986549,-0.022908473,-0.020355225,-0.0005730107,0.0002314337,-487.9991,0.0009955707,-0.0046244254,-0.045185897,-0.047853097,-2.551949e-05,-1.4980818e-05,4.813075e-06,-0.0023204,-0.027679322,-0.009459442,0.017063208,0.00030017106,0.014626069,0.0050611896,1.912654e-05,487.9991,0.010009766,1e-04,-487.9991,0.12132227,0.11360469,0.081083074,0.049477104,inf,inf,inf,inf,inf,1,1,1,1,3,2,2,1,2,1,1,1,0,2,0,0
1777225939089000,1777225939089000,1777225652689000,47.397742,8.5455943,-0.02803625,-0.022856826,-0.02053833,-0.0005730107,0.0002314337,-487.9991,0.0006646513,-0.0044907797,-0.04519254,-0.047719374,-2.551949e-05,-1.4980818e-05,4.813075e-06,-0.038093686,0.009593975,-0.010606366,0.017007114,0.00029946395,0.014566604,0.0050611896,1.9159776e-05,487.9991,0.010009766,1e-04,-487.9991,0.121731885,0.113857046,0.08137474,0.049559668,inf,inf,inf,inf,inf,1,1,1,1,3,2,2,1,2,1,1,1,0,2,0,0
1777225939097000,1777225939097000,1777225652689000,47.397742,8.5455943,-0.028085016,-0.022806458,-0.020690918,-0.0005730107,0.0002314337,-487.9991,0.0008406787,-0.0044501326,-0.045458686,-0.047844723,-2.551949e-05,-1.4980818e-05,4.813075e-06,0.025179159,-0.0018066583,-0.04296051,0.016961727,0.0002995708,0.01451773,0.0050611896,1.9204326e-05,487.9991,0.010009766,1e-04,-487.9991,0.122146666,0.11405016,0.08167526,0.049631443,inf,inf,inf,inf,inf,1,1,1,1,3,2,2,1,2,1,1,1,0,2,0,0
1777225939105000,1777225939105000,1777225652689000,47.397742,8.5455943,-0.028126193,-0.022733007,-0.020874023,-0.0005730107,0.0002314337,-487.9991,0.0008292684,-0.0047193803,-0.04543969,-0.04766763,-2.551949e-05,-1.4980818e-05,4.813075e-06,0.001504983,-0.04228721,-0.008874572,0.01686305,0.00029965764,0.01441559,0.0050611896,1.8966923e-05,487.9991,0.010009766,1e-04,-487.9991,0.1198976,0.112726636,0.08002457,0.049186025,inf,inf,inf,inf,inf,1,1,1,1,3,2,2,1,2,1,1,1,0,2,0,0
1777225939113000,1777225939113000,1777225652689000,47.397742,8.5455943,-0.028168024,-0.022663882,-0.021026611,-0.0005730107,0.0002314337,-487.9991,0.00048387918,-0.004762289,-0.04552788,-0.04760196,-2.551949e-05,-1.4980818e-05,4.813075e-06,-0.04032388,-0.013730618,-0.021992715,0.016860299,0.00029976454,0.014409272,0.0050611896,1.9011311e-05,487.9991,0.010009766,1e-04,-487.9991,0.12029996,0.11297607,0.080325544,0.04926904,inf,inf,inf,inf,inf,1,1,1,1,3,2,2,1,2,1,1,1,0,2,0,0
1777225939121000,1777225939121000,1777225652689000,47.397742,8.5455943,-0.02821039,-0.022597726,-0.0211792,-0.0005730107,0.0002314337,-487.9991,0.0003541884,-0.0046389783,-0.045450572,-0.047374856,-2.551949e-05,-1.4980818e-05,4.813075e-06,-0.0134435855,0.0073033785,-0.0010342336,0.016837273,0.00029987146,0.014382711,0.0050611896,1.9055737e-05,487.9991,0.010009766,1e-04,-487.9991,0.12070507,0.11322633,0.08062588,0.049351923,inf,inf,inf,inf,inf,1,1,1,1,3,2,2,1,2,1,1,1,0,2,0,0
1777225939129000,1777225939129000,1777225652689000,47.397742,8.5455943,-0.028252445,-0.022533929,-0.021362305,-0.0005730107,0.0002314337,-487.9991,0.00034305372,-0.0045476044,-0.045394603,-0.047172982,-2.551949e-05,-1.4980818e-05,4.813075e-06,0.0013011271,0.0035674023,-0.0034370457,0.016792865,0.00029997845,0.014334815,0.0050611896,1.9100204e-05,487.9991,0.010009766,1e-04,-487.9991,0.121112935,0.11347743,0.080927,0.049434677,inf,inf,inf,inf,inf,1,1,1,1,3,2,2,1,2,1,1,1,0,2,0,0
1777225939137000,1777225939137000,1777225652689000,47.397742,8.5455943,-0.028293975,-0.02247189,-0.021514893,-0.0005730107,0.0002314337,-487.9991,9.331267e-05,-0.004356382,-0.045436293,-0.04707251,-2.551949e-05,-1.4980818e-05,4.813075e-06,-0.028600518,0.01629181,-0.015387776,0.016830487,0.0003000855,0.014368987,0.0050611896,1.9144705e-05,487.9991,0.010009766,1e-04,-487.9991,0.12152357,0.113729365,0.08122773,0.049517304,inf,inf,inf,inf,inf,1,1,1,1,3,2,2,1,2,1,1,1,0,2,0,0
1777225939145000,1777225939145000,1777225652689000,47.397742,8.5455943,-0.02833725,-0.022411764,-0.021697998,-0.0005730107,0.0002314337,-487.9991,-0.00021538572,-0.0042418144,-0.0454896,-0.04698729,-2.551949e-05,-1.4980818e-05,4.813075e-06,-0.036045972,0.0069512133,-0.016590578,0.016887223,0.0003001925,0.014422314,0.0050611896,1.9189241e-05,487.9991,0.010009766,1e-04,-487.9991,0.121936955,0.11398213,0.08152845,0.049599804,inf,inf,inf,inf,inf,1,1,1,1,3,2,2,1,2,1,1,1,0,2,0,0
1777225939153000,1777225939153000,1777225652689000,47.397742,8.5455943,-0.0283856,-0.02234885,-0.021850586,-0.0005730107,0.0002314337,-487.9991,-0.00042131727,-0.004101185,-0.045542736,-0.046876498,-2.551949e-05,-1.4980818e-05,4.813075e-06,-0.022979293,0.009773064,-0.018389428,0.016897092,0.0003002803,0.014428815,0.0050611896,1.895369e-05,487.9991,0.010009766,1e-04,-487.9991,0.11970266,0.11260358,0.07988835,0.049145553,inf,inf,inf,inf,inf,1,1,1,1,3,2,2,1,2,1,1,1,0,2,0,0
1777225939161000,1777225939161000,1777225652689000,47.397742,8.5455943,-0.028433518,-0.022287322,-0.022003174,-0.0005730107,0.0002314337,-487.9991,-0.0007297618,-0.0039956197,-0.045708284,-0.046882685,-2.551949e-05,-1.4980818e-05,4.813075e-06,-0.03610044,0.005632411,-0.032145992,0.016886761,0.00029957228,0.014415113,0.0050611896,1.8986992e-05,487.9991,0.010009766,1e-04,-487.9991,0.12010151,0.112852596,0.08017925,0.049228627,inf,inf,inf,inf,inf,1,1,1,1,3,2,2,1,2,1,1,1,0,2,0,0
1777225939169000,1777225939169000,1777225652689000,47.397742,8.5455943,-0.028483924,-0.02223035,-0.022155762,-0.0005730107,0.0002314337,-487.9991,-0.0011992411,-0.004374997,-0.04574243,-0.04676188,-2.551949e-05,-1.4980818e-05,4.813075e-06,-0.056303248,-0.054745965,-0.015433411,0.016860468,0.0002996792,0.014385387,0.0050611896,1.9031404e-05,487.9991,0.010009766,1e-04,-487.9991,0.12050528,0.11310245,0.0804793,0.049311575,inf,inf,inf,inf,inf,1,1,1,1,3,2,2,1,2,1,1,1,0,2,0,0
1777225939177000,1777225939177000,1777225652689000,47.397742,8.5455943,-0.02853594,-0.022177778,-0.02230835,-0.0005730107,0.0002314337,-487.9991,-0.0014172579,-0.004360604,-0.04596053,-0.046829294,-2.551949e-05,-1.4980818e-05,4.813075e-06,-0.02493624,-0.005295505,-0.03814883,0.01682873,0.00029978604,0.014350271,0.0050611896,1.9075844e-05,487.9991,0.010009766,1e-04,-487.9991,0.1209118,0.11335314,0.0807799,0.04939439,inf,inf,inf,inf,inf,1,1,1,1,3,2,2,1,2,1,1,1,0,2,0,0
1777225939185000,1777225939185000,1777225652689000,47.397742,8.5455943,-0.02858732,-0.022126693,-0.022460938,-0.0005730107,0.0002314337,-487.9991,-0.0013231721,-0.004112576,-0.046218995,-0.04694119,-2.551949e-05,-1.4980818e-05,4.813075e-06,0.014007096,0.024131894,-0.04292279,0.016779907,0.00029989303,0.014298119,0.0050611896,1.9120333e-05,487.9991,0.010009766,1e-04,-487.9991,0.12132108,0.11360467,0.081080146,0.049477078,inf,inf,inf,inf,inf,1,1,1,1,3,2,2,1,2,1,1,1,0,2,0,0
1777225939193000,1777225939193000,1777225652689000,47.397742,8.5455943,-0.028637247,-0.022076748,-0.022613525,-0.0005730107,0.0002314337,-487.9991,-0.0013021025,-0.0039865975,-0.0461684,-0.046748113,-2.551949e-05,-1.4980818e-05,4.813075e-06,0.004813131,0.009098358,-0.0040265727,0.01678001,0.0003,0.014294967,0.0050611896,1.916485e-05,487.9991,0.010009766,1e-04,-487.9991,0.12173312,0.11385704,0.081379406,0.04955964,inf,inf,inf,inf,inf,1,1,1,1,3,2,2,1,2,1,1,1,0,2,0,0
1777225939201000,1777225939201000,1777225652689000,47.397742,8.5455943,-0.028685657,-0.02202905,-0.02279663,-0.0005730107,0.0002314337,-487.9991,-0.0012301159,-0.004056476,-0.04589839,-0.04633466,-2.551949e-05,-1.4980818e-05,4.813075e-06,0.011111087,-0.015168195,0.02348842,0.016735356,0.00030010694,0.014247134,0.0050611896,1.9209401e-05,487.9991,0.010009766,1e-04,-487.9991,0.12214793,0.11405014,0.08168023,0.04963142,inf,inf,inf,inf,inf,1,1,1,1,3,2,2,1,2,1,1,1,0,2,0,0
1777225939209000,1777225939209000,1777225652689000,47.397742,8.5455943,-0.028726207,-0.021972252,-0.022918701,-0.0005730107,0.0002314337,-487.9991,-0.0011562925,-0.0038054124,-0.04592943,-0.046196498,-2.551949e-05,-1.4980818e-05,4.813075e-06,0.010950485,0.024126442,-0.015985219,0.016707662,0.00030019452,0.014216343,0.0050611896,1.8971848e-05,487.9991,0.010009766,1e-04,-487.9991,0.11989873,0.11272663,0.080027945,0.049186006,inf,inf,inf,inf,inf,1,1,1,1,3,2,2,1,2,1,1,1,0,2,0,0
1777225939217000,1777225939217000,1777225652689000,47.397742,8.5455943,-0.028765135,-0.02191368,-0.023071289,-0.0005730107,0.0002314337,-487.9991,-0.001076631,-0.0031131778,-0.045804534,-0.045907706,-2.551949e-05,-1.4980818e-05,4.813075e-06,0.011625286,0.079503134,0.0038137657,0.016734304,0.00030030156,0.014239889,0.0050611896,1.901624e-05,487.9991,0.010009766,1e-04,-487.9991,0.12030111,0.11297605,0.080327034,0.04926902,inf,inf,inf,inf,inf,1,1,1,1,3,2,2,1,2,1,1,1,0,2,0,0
1777225939225000,1777225939225000,1777225652689000,47.397742,8.5455943,-0.028802995,-0.021854976,-0.02319336,-0.0005730107,0.0002314337,-487.9991,-0.0010617272,-0.0030889618,-0.045562826,-0.045507327,-2.551949e-05,-1.4980818e-05,4.813075e-06,0.0034182037,-0.0038032674,0.01871446,0.016716095,0.00029959393,0.014218662,0.0050611896,1.9049523e-05,487.9991,0.010009766,1e-04,-487.9991,0.12070393,0.11322632,0.08061717,0.049351905,inf,inf,inf,inf,inf,1,1,1,1,3,2,2,1,2,1,1,1,0,2,0,0
1777225939233000,1777225939233000,1777225652689000,47.397742,8.5455943,-0.028838294,-0.021798689,-0.023345947,-0.0005730107,0.0002314337,-487.9991,-0.00070238835,-0.003028041,-0.045376167,-0.045167115,-2.551949e-05,-1.4980818e-05,4.813075e-06,0.046417184,0.0010017172,0.012123956,0.016648727,0.00029970074,0.014148461,0.0050611896,1.9093979e-05,487.9991,0.010009766,1e-04,-487.9991,0.12111175,0.11347742,0.08091754,0.04943466,inf,inf,inf,inf,inf,1,1,1,1,3,2,2,1,2,1,1,1,0,2,0,0
1777225939241000,1777225939241000,1777225652689000,47.397742,8.5455943,-0.028870888,-0.021745889,-0.023498535,-0.0005730107,0.0002314337,-487.9991,-0.0005511404,-0.003347352,-0.045369204,-0.045011558,-2.551949e-05,-1.4980818e-05,4.813075e-06,0.020350317,-0.04631757,-0.010055489,0.016617456,0.0002998077,0.014114438,0.0050611896,1.9138482e-05,487.9991,0.010009766,1e-04,-487.9991,0.12152234,0.11372935,0.08121809,0.049517285,inf,inf,inf,inf,inf,1,1,1,1,3,2,2,1,2,1,1,1,0,2,0,0
1777225939249000,1777225939249000,1777225652689000,47.397742,8.5455943,-0.028902499,-0.02169783,-0.023651123,-0.0005730107,0.0002314337,-487.9991,-0.0006777562,-0.0034949128,-0.045340277,-0.044838812,-2.551949e-05,-1.4980818e-05,4.813075e-06,-0.014432506,-0.024640912,-0.007035676,0.016560562,0.00029991462,0.014054861,0.0050611896,1.9183017e-05,487.9991,0.010009766,1e-04,-487.9991,0.12193569,0.11398212,0.08151984,0.049599785,inf,inf,inf,inf,inf,1,1,1,1,3,2,2,1,2,1,1,1,0,2,0,0
1777225939257000,1777225939257000,1777225652689000,47.397742,8.5455943,-0.028928414,-0.021641882,-0.023773193,-0.0005730107,0.0002314337,-487.9991,-0.00073892256,-0.0037111437,-0.04513051,-0.0444649,-2.551949e-05,-1.4980818e-05,4.813075e-06,-0.0065740044,-0.03403887,0.013906508,0.016583556,0.00030000205,0.014075255,0.0050611896,1.8947707e-05,487.9991,0.010009766,1e-04,-487.9991,0.11970158,0.11260357,0.079880305,0.04914554,inf,inf,inf,inf,inf,1,1,1,1,3,2,2,1,2,1,1,1,0,2,0,0
1777225939265000,1777225939265000,1777225652689000,47.397742,8.5455943,-0.028953763,-0.021589745,-0.023895264,-0.0005730107,0.0002314337,-487.9991,-0.0006812132,-0.0036501016,-0.044827275,-0.04400295,-2.551949e-05,-1.4980818e-05,4.813075e-06,0.008249711,0.0008391261,0.025905201,0.016542606,0.00030010907,0.014031712,0.0050611896,1.8992081e-05,487.9991,0.010009766,1e-04,-487.9991,0.120102614,0.11285258,0.08018016,0.049228612,inf,inf,inf,inf,inf,1,1,1,1,3,2,2,1,2,1,1,1,0,2,0,0
1777225939273000,1777225939273000,1777225652689000,47.397742,8.5455943,-0.028977474,-0.021537904,-0.024047852,-0.0005730107,0.0002314337,-487.9991,-0.0005725936,-0.0034445748,-0.04496699,-0.04398921,-2.551949e-05,-1.4980818e-05,4.813075e-06,0.014504071,0.018940376,-0.029156914,0.01658465,0.00030006727,0.0140712485,0.0050611896,1.9034353e-05,487.9991,0.010009766,1e-04,-487.9991,0.12050601,0.113102436,0.080478236,0.049311556,inf,inf,inf,inf,inf,1,1,1,1,3,2,2,1,2,1,1,1,0,2,0,0
1777225939281000,1777225939281000,1777225652689000,47.397742,8.5455943,-0.029000472,-0.021486128,-0.024169922,-0.0005730107,0.0002314337,-487.9991,-0.0006141423,-0.002952724,-0.04513757,-0.04401146,-2.551949e-05,-1.4980818e-05,4.813075e-06,-0.0042962087,0.054941844,-0.032717824,0.016566288,0.0003001742,0.014050053,0.0050611896,1.9078787e-05,487.9991,0.010009766,1e-04,-487.9991,0.12091254,0.11335313,0.08077842,0.049394373,inf,inf,inf,inf,inf,1,1,1,1,3,2,2,1,2,1,1,1,0,2,0,0
1777225939289000,1777225939289000,1777225652689000,47.397742,8.5455943,-0.029022627,-0.02143304,-0.02432251,-0.0005730107,0.0002314337,-487.9991,-0.00050152035,-0.0025109553,-0.04506158,-0.0437921,-2.551949e-05,-1.4980818e-05,4.813075e-06,0.014942918,0.048889376,-0.001606997,0.016559586,0.00030028122,0.014040599,0.0050611896,1.9123263e-05,487.9991,0.010009766,1e-04,-487.9991,0.12132182,0.11360466,0.08107903,0.04947706,inf,inf,inf,inf,inf,1,1,1,1,3,2,2,1,2,1,1,1,0,2,0,0
1777225939297000,1777225939297000,1777225652689000,47.397742,8.5455943,-0.029044576,-0.021377195,-0.024475098,-0.0005730107,0.0002314337,-487.9991,-0.0004622158,-0.002068418,-0.045174565,-0.043766513,-2.551949e-05,-1.4980818e-05,4.813075e-06,0.0058932127,0.048865,-0.024947336,0.016528258,0.00029957408,0.0140066,0.0050611896,1.9156492e-05,487.9991,0.010009766,1e-04,-487.9991,0.12173142,0.11385702,0.08137041,0.049559623,inf,inf,inf,inf,inf,1,1,1,1,3,2,2,1,2,1,1,1,0,2,0,0
1777225939305000,1777225939305000,1777225652689000,47.397742,8.5455943,-0.029065205,-0.02132144,-0.024597168,-0.0005730107,0.0002314337,-487.9991,-0.0003748538,-0.0019310766,-0.044953782,-0.043407798,-2.551949e-05,-1.4980818e-05,4.813075e-06,0.011864234,0.010923654,0.016927252,0.01659659,0.00029968092,0.014074869,0.0050611896,1.9201041e-05,487.9991,0.010009766,1e-04,-487.9991,0.12214618,0.11405013,0.08167159,0.0496314,inf,inf,inf,inf,inf,1,1,1,1,3,2,2,1,2,1,1,1,0,2,0,0
1777225939313000,1777225939313000,1777225652689000,47.397742,8.5455943,-0.029078886,-0.021264048,-0.024749756,-0.0005730107,0.0002314337,-487.9991,-0.0006867526,-0.0019496138,-0.04521585,-0.043522652,-2.551949e-05,-1.4980818e-05,4.813075e-06,-0.03854457,-0.008900311,-0.044706274,0.016705316,0.00029976826,0.014183611,0.0050611896,1.8963736e-05,487.9991,0.010009766,1e-04,-487.9991,0.119897194,0.112726614,0.080020666,0.04918598,inf,inf,inf,inf,inf,1,1,1,1,3,2,2,1,2,1,1,1,0,2,0,0
1777225939321000,1777225939321000,1777225652689000,47.397742,8.5455943,-0.029095598,-0.021208629,-0.024871826,-0.0005730107,0.0002314337,-487.9991,-0.001115614,-0.0018842085,-0.04544674,-0.04361134,-2.551949e-05,-1.4980818e-05,4.813075e-06,-0.053185683,0.0018016661,-0.04050275,0.016750047,0.0002998751,0.014228398,0.0050611896,1.9008115e-05,487.9991,0.010009766,1e-04,-487.9991,0.12029954,0.112976044,0.08032041,0.04926899,inf,inf,inf,inf,inf,1,1,1,1,3,2,2,1,2,1,1,1,0,2,0,0
1777225939329000,1777225939329000,1777225652689000,47.397742,8.5455943,-0.02911428,-0.021157071,-0.025024414,-0.0005730107,0.0002314337,-487.9991,-0.001312965,-0.0021970232,-0.045728162,-0.043755386,-2.551949e-05,-1.4980818e-05,4.813075e-06,-0.024261141,-0.045275275,-0.046521887,0.016746782,0.00029998197,0.014225267,0.0050611896,1.905253e-05,487.9991,0.010009766,1e-04,-487.9991,0.12070463,0.11322631,0.080621034,0.049351875,inf,inf,inf,inf,inf,1,1,1,1,3,2,2,1,2,1,1,1,0,2,0,0
1777225939337000,1777225939337000,1777225652689000,47.397742,8.5455943,-0.029133894,-0.021108449,-0.025177002,-0.0005730107,0.0002314337,-487.9991,-0.0013677191,-0.0021661478,-0.04577242,-0.043666877,-2.551949e-05,-1.4980818e-05,4.813075e-06,-0.0064509963,-0.0021195041,-0.016586853,0.016687017,0.00030008884,0.014165718,0.0050611896,1.909698e-05,487.9991,0.010009766,1e-04,-487.9991,0.121112466,0.11347741,0.0809222,0.049434625,inf,inf,inf,inf,inf,1,1,1,1,3,2,2,1,2,1,1,1,0,2,0,0
1777225939345000,1777225939345000,1777225652689000,47.397742,8.5455943,-0.029151795,-0.021061692,-0.02532959,-0.0005730107,0.0002314337,-487.9991,-0.0010239711,-0.0020411226,-0.045934003,-0.04370014,-2.551949e-05,-1.4980818e-05,4.813075e-06,0.043347787,0.0098396065,-0.030971596,0.01669107,0.00030019577,0.014170062,0.0050611896,1.9141466e-05,487.9991,0.010009766,1e-04,-487.9991,0.121523075,0.113729335,0.0812228,0.049517255,inf,inf,inf,inf,inf,1,1,1,1,3,2,2,1,2,1,1,1,0,2,0,0
1777225939353000,1777225939353000,1777225652689000,47.397742,8.5455943,-0.029168572,-0.02101671,-0.025482178,-0.0005730107,0.0002314337,-487.9991,-0.0011159802,-0.0020991834,-0.04594437,-0.04358653,-2.551949e-05,-1.4980818e-05,4.813075e-06,-0.011141123,-0.012855684,-0.011796131,0.01667586,0.00030030272,0.014155215,0.0050611896,1.9185993e-05,487.9991,0.010009766,1e-04,-487.9991,0.12193645,0.11398211,0.081523135,0.049599756,inf,inf,inf,inf,inf,1,1,1,1,3,2,2,1,2,1,1,1,0,2,0,0
1777225939361000,1777225939361000,1777225652689000,47.397742,8.5455943,-0.02918886,-0.020964421,-0.025634766,-0.0005730107,0.0002314337,-487.9991,-0.0013440129,-0.0023826375,-0.04623252,-0.04372601,-2.551949e-05,-1.4980818e-05,4.813075e-06,-0.02810927,-0.041747425,-0.04830863,0.016662704,0.00030039102,0.014142495,0.0050611896,1.8950566e-05,487.9991,0.010009766,1e-04,-487.9991,0.11970224,0.11260356,0.07988362,0.04914551,inf,inf,inf,inf,inf,1,1,1,1,3,2,2,1,2,1,1,1,0,2,0,0
1777225939369000,1777225939369000,1777225652689000,47.397742,8.5455943,-0.029210063,-0.020915942,-0.025756836,-0.0005730107,0.0002314337,-487.9991,-0.0013413408,-0.0023798074,-0.046293356,-0.043643415,-2.551949e-05,-1.4980818e-05,4.813075e-06,0.0007080634,-0.005764522,-0.019576399,0.016626114,0.00030049816,0.014106348,0.0050611896,1.8994939e-05,487.9991,0.010009766,1e-04,-487.9991,0.1201033,0.11285257,0.08018319,0.04922858,inf,inf,inf,inf,inf,1,1,1,1,3,2,2,1,2,1,1,1,0,2,0,0
1777225939377000,1777225939377000,1777225652689000,47.397742,8.5455943,-0.02923162,-0.020869875,-0.025909424,-0.0005730107,0.0002314337,-487.9991,-0.0016195663,-0.0024400272,-0.046212915,-0.043424677,-2.551949e-05,-1.4980818e-05,4.813075e-06,-0.034421135,-0.013445537,-0.0016088596,0.016601177,0.00030060526,0.014081923,0.0050611896,1.9039344e-05,487.9991,0.010009766,1e-04,-487.9991,0.120507106,0.11310243,0.08048268,0.049311526,inf,inf,inf,inf,inf,1,1,1,1,3,2,2,1,2,1,1,1,0,2,0,0
1777225939385000,1777225939385000,1777225652689000,47.397742,8.5455943,-0.029254768,-0.0208251,-0.026062012,-0.0005730107,0.0002314337,-487.9991,-0.0016801372,-0.0021075567,-0.046144433,-0.043222915,-2.551949e-05,-1.4980818e-05,4.813075e-06,-0.007233328,0.03583587,-0.0028032807,0.016660325,0.00030071242,0.014141655,0.0050611896,1.9083789e-05,487.9991,0.010009766,1e-04,-487.9991,0.12091365,0.113353126,0.08078274,0.049394347,inf,inf,inf,inf,inf,1,1,1,1,3,2,2,1,2,1,1,1,0,2,0,0
1777225939393000,1777225939393000,1777225652689000,47.397742,8.5455943,-0.029277846,-0.020778596,-0.0262146,-0.0005730107,0.0002314337,-487.9991,-0.0018667358,-0.0015491578,-0.04606862,-0.043018706,-2.551949e-05,-1.4980818e-05,4.813075e-06,-0.023001073,0.064259335,-0.0015953555,0.01671193,0.00030081964,0.014193904,0.0050611896,1.912827e-05,487.9991,0.010009766,1e-04,-487.9991,0.12132295,0.11360465,0.08108343,0.049477037,inf,inf,inf,inf,inf,1,1,1,1,3,2,2,1,2,1,1,1,0,2,0,0
1777225939401000,1777225939401000,1777225652689000,47.397742,8.5455943,-0.02930266,-0.020731438,-0.026367188,-0.0005730107,0.0002314337,-487.9991,-0.0020460906,-0.0014165799,-0.046009537,-0.042835966,-2.551949e-05,-1.4980818e-05,4.813075e-06,-0.022111274,0.011210342,-0.003403518,0.016719801,0.00030092688,0.014202483,0.0050611896,1.9172789e-05,487.9991,0.010009766,1e-04,-487.9991,0.12173502,0.113857016,0.08138423,0.0495596,inf,inf,inf,inf,inf,1,1,1,1,3,2,2,1,2,1,1,1,0,2,0,0
1777225939409000,1777225939409000,1777225652689000,47.397742,8.5455943,-0.029328195,-0.020686341,-0.026519775,-0.0005730107,0.0002314337,-487.9991,-0.0021392403,-0.0015122613,-0.04567377,-0.042376146,-2.551949e-05,-1.4980818e-05,4.813075e-06,-0.0113585275,-0.0171515,0.031298954,0.016664762,0.0003010341,0.014148211,0.0050611896,1.9217343e-05,487.9991,0.010009766,1e-04,-487.9991,0.12214986,0.11405012,0.0816849,0.04963138,inf,inf,inf,inf,inf,1,1,1,1,3,2,2,1,2,1,1,1,0,2,0,0
1777225939417000,1777225939417000,1777225652689000,47.397742,8.5455943,-0.029367382,-0.020632131,-0.026641846,-0.0005730107,0.0002314337,-487.9991,-0.0022369379,-0.0011606904,-0.045245387,-0.041792504,-2.551949e-05,-1.4980818e-05,4.813075e-06,-0.011283175,0.0380201,0.040892974,0.016621394,0.0003011228,0.014105666,0.0050611896,1.8979583e-05,487.9991,0.010009766,1e-04,-487.9991,0.119900465,0.11272661,0.08003227,0.049185965,inf,inf,inf,inf,inf,1,1,1,1,3,2,2,1,2,1,1,1,0,2,0,0
1777225939425000,1777225939425000,1777225652689000,47.397742,8.5455943,-0.029407032,-0.02057594,-0.026763916,-0.0005730107,0.0002314337,-487.9991,-0.0023541423,-0.00065610354,-0.04488658,-0.041284412,-2.551949e-05,-1.4980818e-05,4.813075e-06,-0.013758761,0.05734165,0.032525506,0.016622769,0.00030123012,0.014107866,0.0050611896,1.9023973e-05,487.9991,0.010009766,1e-04,-487.9991,0.12030288,0.11297603,0.080332704,0.04926898,inf,inf,inf,inf,inf,1,1,1,1,3,2,2,1,2,1,1,1,0,2,0,0
1777225939433000,1777225939433000,1777225652689000,47.397742,8.5455943,-0.02944557,-0.02051905,-0.026885986,-0.0005730107,0.0002314337,-487.9991,-0.0021324356,-0.00052951573,-0.045186535,-0.041440822,-2.551949e-05,-1.4980818e-05,4.813075e-06,0.02861569,0.010126261,-0.04949886,0.016636914,0.00030051562,0.014122879,0.0050611896,1.9057208e-05,487.9991,0.010009766,1e-04,-487.9991,0.120705724,0.113226295,0.080624126,0.04935186,inf,inf,inf,inf,inf,1,1,1,1,3,2,2,1,2,1,1,1,0,2,0,0
1777225939441000,1777225939441000,1777225652689000,47.397742,8.5455943,-0.029483588,-0.020464184,-0.027008057,-0.0005730107,0.0002314337,-487.9991,-0.0023136984,-0.0006131258,-0.045038857,-0.041155152,-2.551949e-05,-1.4980818e-05,4.813075e-06,-0.021792281,-0.01596788,0.006766058,0.016656194,0.00030062266,0.014144266,0.0050611896,1.9101662e-05,487.9991,0.010009766,1e-04,-487.9991,0.12111358,0.113477394,0.08092449,0.049434613,inf,inf,inf,inf,inf,1,1,1,1,3,2,2,1,2,1,1,1,0,2,0,0
1777225939449000,1777225939449000,1777225652689000,47.397742,8.5455943,-0.029521327,-0.020410694,-0.027130127,-0.0005730107,0.0002314337,-487.9991,-0.002228431,-0.000360028,-0.04498932,-0.040972993,-2.551949e-05,-1.4980818e-05,4.813075e-06,0.011494603,0.026296398,-0.005199108,0.016620008,0.00030072982,0.014110252,0.0050611896,1.914616e-05,487.9991,0.010009766,1e-04,-487.9991,0.121524215,0.11372933,0.08122558,0.049517244,inf,inf,inf,inf,inf,1,1,1,1,3,2,2,1,2,1,1,1,0,2,0,0
1777225939457000,1777225939457000,1777225652689000,47.397742,8.5455943,-0.029557392,-0.020358644,-0.027282715,-0.0005730107,0.0002314337,-487.9991,-0.002050323,-0.0005050972,-0.045018908,-0.040875167,-2.551949e-05,-1.4980818e-05,4.813075e-06,0.023067815,-0.023306696,-0.0147949895,0.0166253,0.00030083698,0.014117777,0.0050611896,1.9190691e-05,487.9991,0.010009766,1e-04,-487.9991,0.1219376,0.113982104,0.0815261,0.049599744,inf,inf,inf,inf,inf,1,1,1,1,3,2,2,1,2,1,1,1,0,2,0,0
1777225939465000,1777225939465000,1777225652689000,47.397742,8.5455943,-0.029604789,-0.020288842,-0.027374268,-0.0005730107,0.0002314337,-487.9991,-0.0019796696,-0.0009423149,-0.045250785,-0.040940717,-2.551949e-05,-1.4980818e-05,4.813075e-06,0.01022556,-0.06102501,-0.04234025,0.016626358,0.00030092537,0.0141210575,0.0050611896,1.895513e-05,487.9991,0.010009766,1e-04,-487.9991,0.11970327,0.11260355,0.07988681,0.049145494,inf,inf,inf,inf,inf,1,1,1,1,3,2,2,1,2,1,1,1,0,2,0,0
1777225939473000,1777225939473000,1777225652689000,47.397742,8.5455943,-0.029650725,-0.02022198,-0.02746582,-0.0005730107,0.0002314337,-487.9991,-0.0020339156,-0.001001505,-0.045451738,-0.040981848,-2.551949e-05,-1.4980818e-05,4.813075e-06,-0.0054834797,-0.013879545,-0.03812322,0.016677601,0.00030088308,0.014174413,0.0050611896,1.8997369e-05,487.9991,0.010009766,1e-04,-487.9991,0.12010398,0.112852566,0.08018535,0.049228568,inf,inf,inf,inf,inf,1,1,1,1,3,2,2,1,2,1,1,1,0,2,0,0
1777225939481000,1777225939481000,1777225652689000,47.397742,8.5455943,-0.029697176,-0.020157613,-0.02758789,-0.0005730107,0.0002314337,-487.9991,-0.002228962,-0.00087588397,-0.04573671,-0.04111323,-2.551949e-05,-1.4980818e-05,4.813075e-06,-0.023122735,0.009425698,-0.048284415,0.01666548,0.0003009902,0.01416382,0.0050611896,1.9041767e-05,487.9991,0.010009766,1e-04,-487.9991,0.120507784,0.11310242,0.08048608,0.04931151,inf,inf,inf,inf,inf,1,1,1,1,3,2,2,1,2,1,1,1,0,2,0,0
1777225939489000,1777225939489000,1777225652689000,47.397742,8.5455943,-0.029743033,-0.02009516,-0.027709961,-0.0005730107,0.0002314337,-487.9991,-0.002152908,-0.0010615058,-0.04590006,-0.041128986,-2.551949e-05,-1.4980818e-05,4.813075e-06,0.0107180895,-0.029282913,-0.03274949,0.016649084,0.00030109737,0.014148941,0.0050611896,1.9086201e-05,487.9991,0.010009766,1e-04,-487.9991,0.12091435,0.11335311,0.08078658,0.04939433,inf,inf,inf,inf,inf,1,1,1,1,3,2,2,1,2,1,1,1,0,2,0,0
1777225939497000,1777225939497000,1777225652689000,47.397742,8.5455943,-0.029788554,-0.020038312,-0.027832031,-0.0005730107,0.0002314337,-487.9991,-0.0022401577,-0.0015774526,-0.045553733,-0.040640842,-2.551949e-05,-1.4980818e-05,4.813075e-06,-0.009686884,-0.07043389,0.031282656,0.016665766,0.00030038433,0.014167123,0.0050611896,1.9119416e-05,487.9991,0.010009766,1e-04,-487.9991,0.12132128,0.11360464,0.08107838,0.049477022,inf,inf,inf,inf,inf,1,1,1,1,3,2,2,1,2,1,1,1,0,2,0,0
1777225939505000,1777225939505000,1777225652689000,47.397742,8.5455943,-0.029832507,-0.01998587,-0.027954102,-0.0005730107,0.0002314337,-487.9991,-0.0019885683,-0.0015934308,-0.045731716,-0.040682584,-2.551949e-05,-1.4980818e-05,4.813075e-06,0.032632217,-0.0077488543,-0.03394298,0.01671941,0.00030049126,0.014222609,0.0050611896,1.9163916e-05,487.9991,0.010009766,1e-04,-487.9991,0.121733315,0.11385701,0.08137923,0.049559582,inf,inf,inf,inf,inf,1,1,1,1,3,2,2,1,2,1,1,1,0,2,0,0
1777225939513000,1777225939513000,1777225652689000,47.397742,8.5455943,-0.029874766,-0.019935798,-0.028076172,-0.0005730107,0.0002314337,-487.9991,-0.0021354153,-0.0017049809,-0.04588217,-0.040698137,-2.551949e-05,-1.4980818e-05,4.813075e-06,-0.017207215,-0.019509915,-0.03034435,0.016721934,0.00030059824,0.014226954,0.0050611896,1.9208455e-05,487.9991,0.010009766,1e-04,-487.9991,0.12214813,0.11405011,0.08168106,0.04963136,inf,inf,inf,inf,inf,1,1,1,1,3,2,2,1,2,1,1,1,0,2,0,0
1777225939521000,1777225939521000,1777225652689000,47.397742,8.5455943,-0.029931659,-0.01986764,-0.028167725,-0.0005730107,0.0002314337,-487.9991,-0.0027729375,-0.00204991,-0.046192344,-0.04083772,-2.551949e-05,-1.4980818e-05,4.813075e-06,-0.07809132,-0.04989541,-0.052493528,0.016715921,0.00030068643,0.014222747,0.0050611896,1.897087e-05,487.9991,0.010009766,1e-04,-487.9991,0.119898885,0.1127266,0.080029495,0.049185947,inf,inf,inf,inf,inf,1,1,1,1,3,2,2,1,2,1,1,1,0,2,0,0
1777225939529000,1777225939529000,1777225652689000,47.397742,8.5455943,-0.029990807,-0.019805055,-0.028259277,-0.0005730107,0.0002314337,-487.9991,-0.0029572605,-0.0023589055,-0.046261292,-0.04074278,-2.551949e-05,-1.4980818e-05,4.813075e-06,-0.021490835,-0.045188483,-0.021976417,0.016721802,0.00030079347,0.014230313,0.0050611896,1.9015246e-05,487.9991,0.010009766,1e-04,-487.9991,0.12030128,0.11297602,0.08032911,0.049268954,inf,inf,inf,inf,inf,1,1,1,1,3,2,2,1,2,1,1,1,0,2,0,0
1777225939537000,1777225939537000,1777225652689000,47.397742,8.5455943,-0.030050028,-0.019745551,-0.02835083,-0.0005730107,0.0002314337,-487.9991,-0.0031147252,-0.0022128483,-0.04622745,-0.04055157,-2.551949e-05,-1.4980818e-05,4.813075e-06,-0.018181494,0.011901961,-0.00877492,0.016751133,0.00030090057,0.014261302,0.0050611896,1.9059658e-05,487.9991,0.010009766,1e-04,-487.9991,0.12070641,0.11322629,0.080629155,0.049351837,inf,inf,inf,inf,inf,1,1,1,1,3,2,2,1,2,1,1,1,0,2,0,0
1777225939545000,1777225939545000,1777225652689000,47.397742,8.5455943,-0.030110301,-0.019687636,-0.0284729,-0.0005730107,0.0002314337,-487.9991,-0.0034091012,-0.0021005957,-0.04635432,-0.040527392,-2.551949e-05,-1.4980818e-05,4.813075e-06,-0.035333756,0.007877705,-0.028520355,0.016807133,0.0003010077,0.01431893,0.0050611896,1.9104107e-05,487.9991,0.010009766,1e-04,-487.9991,0.12111429,0.11347739,0.080929406,0.04943459,inf,inf,inf,inf,inf,1,1,1,1,3,2,2,1,2,1,1,1,0,2,0,0
1777225939553000,1777225939553000,1777225652689000,47.397742,8.5455943,-0.03017074,-0.01963187,-0.02859497,-0.0005730107,0.0002314337,-487.9991,-0.0034173918,-0.0021728834,-0.04682404,-0.040852215,-2.551949e-05,-1.4980818e-05,4.813075e-06,0.00038620894,-0.014991794,-0.07104361,0.016858894,0.00030111498,0.014372293,0.0050611896,1.9148603e-05,487.9991,0.010009766,1e-04,-487.9991,0.121524945,0.11372932,0.08122996,0.04951722,inf,inf,inf,inf,inf,1,1,1,1,3,2,2,1,2,1,1,1,0,2,0,0
1777225939561000,1777225939561000,1777225652689000,47.397742,8.5455943,-0.030230766,-0.019578647,-0.028717041,-0.0005730107,0.0002314337,-487.9991,-0.003600677,-0.0020893968,-0.046644982,-0.040534258,-2.551949e-05,-1.4980818e-05,4.813075e-06,-0.02152649,0.004672663,0.010378192,0.01684359,0.00030122226,0.0143585615,0.0050611896,1.9193132e-05,487.9991,0.010009766,1e-04,-487.9991,0.121938355,0.11398209,0.08153011,0.049599722,inf,inf,inf,inf,inf,1,1,1,1,3,2,2,1,2,1,1,1,0,2,0,0
1777225939569000,1777225939569000,1777225652689000,47.397742,8.5455943,-0.030292554,-0.019517943,-0.028808594,-0.0005730107,0.0002314337,-487.9991,-0.003710992,-0.002317285,-0.046517417,-0.04023776,-2.551949e-05,-1.4980818e-05,4.813075e-06,-0.012420009,-0.03419912,0.0019762663,0.016822983,0.00030049,0.01433949,0.0050611896,1.894643e-05,487.9991,0.010009766,1e-04,-487.9991,0.119701765,0.112603545,0.079879925,0.04914547,inf,inf,inf,inf,inf,1,1,1,1,3,2,2,1,2,1,1,1,0,2,0,0
1777225939577000,1777225939577000,1777225652689000,47.397742,8.5455943,-0.030353568,-0.019462373,-0.028900146,-0.0005730107,0.0002314337,-487.9991,-0.0037065833,-0.0026341714,-0.046541344,-0.040099956,-2.551949e-05,-1.4980818e-05,4.813075e-06,0.0018815511,-0.045133684,-0.01658825,0.016772699,0.00030059696,0.014285315,0.0050611896,1.8990784e-05,487.9991,0.010009766,1e-04,-487.9991,0.12010281,0.11285256,0.080178775,0.04922854,inf,inf,inf,inf,inf,1,1,1,1,3,2,2,1,2,1,1,1,0,2,0,0
1777225939585000,1777225939585000,1777225652689000,47.397742,8.5455943,-0.030415066,-0.01941007,-0.0289917,-0.0005730107,0.0002314337,-487.9991,-0.004079412,-0.0024785355,-0.04674486,-0.04014873,-2.551949e-05,-1.4980818e-05,4.813075e-06,-0.04531754,0.014111956,-0.038675494,0.01676396,0.00030070395,0.014272645,0.0050611896,1.9035175e-05,487.9991,0.010009766,1e-04,-487.9991,0.120506585,0.11310241,0.08047973,0.04931149,inf,inf,inf,inf,inf,1,1,1,1,3,2,2,1,2,1,1,1,0,2,0,0
1777225939593000,1777225939593000,1777225652689000,47.397742,8.5455943,-0.030477768,-0.019358385,-0.02911377,-0.0005730107,0.0002314337,-487.9991,-0.0041417093,-0.0022425265,-0.04661617,-0.03987204,-2.551949e-05,-1.4980818e-05,4.813075e-06,-0.006543063,0.024335625,0.0032018868,0.016812775,0.000300811,0.0143174995,0.0050611896,1.9079602e-05,487.9991,0.010009766,1e-04,-487.9991,0.12091312,0.1133531,0.08077962,0.049394306,inf,inf,inf,inf,inf,1,1,1,1,3,2,2,1,2,1,1,1,0,2,0,0
1777225939601000,1777225939601000,1777225652689000,47.397742,8.5455943,-0.03053997,-0.019306827,-0.02923584,-0.0005730107,0.0002314337,-487.9991,-0.0042123953,-0.0018978416,-0.046509314,-0.03962373,-2.551949e-05,-1.4980818e-05,4.813075e-06,-0.007629716,0.038091693,0.0008139759,0.016799863,0.00030091807,0.014300555,0.0050611896,1.9124069e-05,487.9991,0.010009766,1e-04,-487.9991,0.12132241,0.113604635,0.08108018,0.049476996,inf,inf,inf,inf,inf,1,1,1,1,3,2,2,1,2,1,1,1,0,2,0,0
1777225939609000,1777225939609000,1777225652689000,47.397742,8.5455943,-0.030602356,-0.019255573,-0.029327393,-0.0005730107,0.0002314337,-487.9991,-0.0043967073,-0.0017027776,-0.046577472,-0.03955678,-2.551949e-05,-1.4980818e-05,4.813075e-06,-0.021869658,0.019561883,-0.020731239,0.01679129,0.00030102523,0.014287878,0.0050611896,1.9168576e-05,487.9991,0.010009766,1e-04,-487.9991,0.12173446,0.113857,0.08138125,0.04955956,inf,inf,inf,inf,inf,1,1,1,1,3,2,2,1,2,1,1,1,0,2,0,0
1777225939617000,1777225939617000,1777225652689000,47.397742,8.5455943,-0.030664727,-0.019204536,-0.029449463,-0.0005730107,0.0002314337,-487.9991,-0.0043821353,-0.001472381,-0.046599533,-0.039446816,-2.551949e-05,-1.4980818e-05,4.813075e-06,0.002951988,0.024142751,-0.014759599,0.016788125,0.00030113244,0.014280537,0.0050611896,1.9213123e-05,487.9991,0.010009766,1e-04,-487.9991,0.12214929,0.114050105,0.08168311,0.049631342,inf,inf,inf,inf,inf,1,1,1,1,3,2,2,1,2,1,1,1,0,2,0,0
1777225939625000,1777225939625000,1777225652689000,47.397742,8.5455943,-0.03072548,-0.019149289,-0.029541016,-0.0005730107,0.0002314337,-487.9991,-0.004173393,-0.0015755988,-0.046827354,-0.039516628,-2.551949e-05,-1.4980818e-05,4.813075e-06,0.026995165,-0.017844211,-0.042322088,0.016769022,0.00030122124,0.014257187,0.0050611896,1.8975428e-05,487.9991,0.010009766,1e-04,-487.9991,0.119899936,0.11272659,0.080031775,0.049185924,inf,inf,inf,inf,inf,1,1,1,1,3,2,2,1,2,1,1,1,0,2,0,0
1777225939633000,1777225939633000,1777225652689000,47.397742,8.5455943,-0.03078429,-0.019098924,-0.029663086,-0.0005730107,0.0002314337,-487.9991,-0.0041680117,-0.0021892574,-0.04713483,-0.03967304,-2.551949e-05,-1.4980818e-05,4.813075e-06,0.0015050056,-0.08151119,-0.05190959,0.01675538,0.00030050756,0.014239205,0.0050611896,1.9008681e-05,487.9991,0.010009766,1e-04,-487.9991,0.12030008,0.112976015,0.08032322,0.049268935,inf,inf,inf,inf,inf,1,1,1,1,3,2,2,1,2,1,1,1,0,2,0,0
1777225939641000,1777225939641000,1777225652689000,47.397742,8.5455943,-0.03084154,-0.01905468,-0.029754639,-0.0005730107,0.0002314337,-487.9991,-0.003986635,-0.0023628843,-0.046961445,-0.03935525,-2.551949e-05,-1.4980818e-05,4.813075e-06,0.023485094,-0.026343115,0.008558388,0.016765038,0.0003006145,0.014244642,0.0050611896,1.9053088e-05,487.9991,0.010009766,1e-04,-487.9991,0.12070518,0.11322628,0.08062386,0.049351815,inf,inf,inf,inf,inf,1,1,1,1,3,2,2,1,2,1,1,1,0,2,0,0
1777225939649000,1777225939649000,1777225652689000,47.397742,8.5455943,-0.030897124,-0.019011736,-0.029876709,-0.0005730107,0.0002314337,-487.9991,-0.0039518303,-0.0021051187,-0.046623003,-0.03887887,-2.551949e-05,-1.4980818e-05,4.813075e-06,0.005139577,0.027739769,0.029539688,0.016776882,0.0003007215,0.01425221,0.0050611896,1.909753e-05,487.9991,0.010009766,1e-04,-487.9991,0.12111304,0.11347738,0.08092338,0.04943457,inf,inf,inf,inf,inf,1,1,1,1,3,2,2,1,2,1,1,1,0,2,0,0
1777225939657000,1777225939657000,1777225652689000,47.397742,8.5455943,-0.030953433,-0.018970443,-0.02999878,-0.0005730107,0.0002314337,-487.9991,-0.004295903,-0.0022632023,-0.046722993,-0.038847204,-2.551949e-05,-1.4980818e-05,4.813075e-06,-0.042248588,-0.02408449,-0.024924984,0.016804745,0.00030082854,0.014275746,0.0050611896,1.9142013e-05,487.9991,0.010009766,1e-04,-487.9991,0.121523656,0.11372931,0.0812247,0.0495172,inf,inf,inf,inf,inf,1,1,1,1,3,2,2,1,2,1,1,1,0,2,0,0
1777225939665000,1777225939665000,1777225652689000,47.397742,8.5455943,-0.03101159,-0.018933587,-0.03012085,-0.0005730107,0.0002314337,-487.9991,-0.004643571,-0.002589298,-0.046624597,-0.038623188,-2.551949e-05,-1.4980818e-05,4.813075e-06,-0.042724427,-0.044930372,0.00020349397,0.01677194,0.00030093562,0.014238557,0.0050611896,1.9186533e-05,487.9991,0.010009766,1e-04,-487.9991,0.12193704,0.11398208,0.08152606,0.0495997,inf,inf,inf,inf,inf,1,1,1,1,3,2,2,1,2,1,1,1,0,2,0,0
1777225939673000,1777225939673000,1777225652689000,47.397742,8.5455943,-0.031071752,-0.018886464,-0.030212402,-0.0005730107,0.0002314337,-487.9991,-0.0049056285,-0.002709539,-0.046388257,-0.03824007,-2.551949e-05,-1.4980818e-05,4.813075e-06,-0.032216914,-0.019924559,0.015769152,0.016756259,0.00030087528,0.014218429,0.0050611896,1.894892e-05,487.9991,0.010009766,1e-04,-487.9991,0.11970239,0.11260354,0.07988508,0.04914545,inf,inf,inf,inf,inf,1,1,1,1,3,2,2,1,2,1,1,1,0,2,0,0
1777225939681000,1777225939681000,1777225652689000,47.397742,8.5455943,-0.031131865,-0.018843103,-0.030303955,-0.0005730107,0.0002314337,-487.9991,-0.0049429787,-0.0028669955,-0.046322554,-0.03803418,-2.551949e-05,-1.4980818e-05,4.813075e-06,-0.004151055,-0.024409136,-0.005190726,0.016756654,0.00030098236,0.014214246,0.0050611896,1.8993273e-05,487.9991,0.010009766,1e-04,-487.9991,0.120103456,0.11285255,0.08018502,0.049228523,inf,inf,inf,inf,inf,1,1,1,1,3,2,2,1,2,1,1,1,0,2,0,0
1777225939689000,1777225939689000,1777225652689000,47.397742,8.5455943,-0.031193418,-0.018802393,-0.030426025,-0.0005730107,0.0002314337,-487.9991,-0.0053863707,-0.0028267168,-0.045938663,-0.037516475,-2.551949e-05,-1.4980818e-05,4.813075e-06,-0.054925974,0.00046629165,0.034941357,0.016796539,0.00030108946,0.014249492,0.0050611896,1.9037663e-05,487.9991,0.010009766,1e-04,-487.9991,0.120507255,0.113102406,0.080485,0.049311467,inf,inf,inf,inf,inf,1,1,1,1,3,2,2,1,2,1,1,1,0,2,0,0
1777225939697000,1777225939697000,1777225652689000,47.397742,8.5455943,-0.031257544,-0.01876458,-0.030517578,-0.0005730107,0.0002314337,-487.9991,-0.005612281,-0.0030611209,-0.04574448,-0.03719463,-2.551949e-05,-1.4980818e-05,4.813075e-06,-0.02776199,-0.03371137,0.011576804,0.016744869,0.00030119662,0.014193134,0.0050611896,1.9082092e-05,487.9991,0.010009766,1e-04,-487.9991,0.12091382,0.113353096,0.08078562,0.049394283,inf,inf,inf,inf,inf,1,1,1,1,3,2,2,1,2,1,1,1,0,2,0,0
1777225939705000,1777225939705000,1777225652689000,47.397742,8.5455943,-0.031319924,-0.018731168,-0.030639648,-0.0005730107,0.0002314337,-487.9991,-0.0053513236,-0.0030828796,-0.045553066,-0.03688142,-2.551949e-05,-1.4980818e-05,4.813075e-06,0.032993797,-0.006785773,0.011569354,0.01677633,0.00030048372,0.01421985,0.0050611896,1.9115305e-05,487.9991,0.010009766,1e-04,-487.9991,0.12132074,0.11360463,0.08107806,0.049476977,inf,inf,inf,inf,inf,1,1,1,1,3,2,2,1,2,1,1,1,0,2,0,0
1777225939713000,1777225939713000,1777225652689000,47.397742,8.5455943,-0.031380825,-0.01869987,-0.030761719,-0.0005730107,0.0002314337,-487.9991,-0.0053107664,-0.0031549835,-0.045407362,-0.036619563,-2.551949e-05,-1.4980818e-05,4.813075e-06,0.0054247035,-0.012929862,0.0061849128,0.016753031,0.00030059065,0.014190167,0.0050611896,1.91598e-05,487.9991,0.010009766,1e-04,-487.9991,0.12173277,0.11385699,0.0813784,0.049559537,inf,inf,inf,inf,inf,1,1,1,1,3,2,2,1,2,1,1,1,0,2,0,0
1777225939721000,1777225939721000,1777225652689000,47.397742,8.5455943,-0.031439867,-0.018671349,-0.030853271,-0.0005730107,0.0002314337,-487.9991,-0.005146505,-0.0031568008,-0.045096077,-0.036195606,-2.551949e-05,-1.4980818e-05,4.813075e-06,0.020870108,-0.0040037273,0.027133616,0.016720193,0.0003006976,0.014150893,0.0050611896,1.920433e-05,487.9991,0.010009766,1e-04,-487.9991,0.12214757,0.1140501,0.08167921,0.049631316,inf,inf,inf,inf,inf,1,1,1,1,3,2,2,1,2,1,1,1,0,2,0,0
1777225939729000,1777225939729000,1777225652689000,47.397742,8.5455943,-0.03148577,-0.018637236,-0.030944824,-0.0005730107,0.0002314337,-487.9991,-0.0050931033,-0.0033209142,-0.044897377,-0.035869684,-2.551949e-05,-1.4980818e-05,4.813075e-06,0.006050361,-0.024868844,0.011571216,0.01678647,0.00030078617,0.0142106805,0.0050611896,1.8966832e-05,487.9991,0.010009766,1e-04,-487.9991,0.1198984,0.11272658,0.08002768,0.049185906,inf,inf,inf,inf,inf,1,1,1,1,3,2,2,1,2,1,1,1,0,2,0,0
1777225939737000,1777225939737000,1777225652689000,47.397742,8.5455943,-0.03153139,-0.018607862,-0.031066895,-0.0005730107,0.0002314337,-487.9991,-0.0051044184,-0.0038215842,-0.044706322,-0.035557386,-2.551949e-05,-1.4980818e-05,4.813075e-06,-0.0020252431,-0.06679208,0.01097191,0.016796231,0.00030089315,0.014213996,0.0050611896,1.9011197e-05,487.9991,0.010009766,1e-04,-487.9991,0.12030078,0.11297601,0.08032801,0.049268916,inf,inf,inf,inf,inf,1,1,1,1,3,2,2,1,2,1,1,1,0,2,0,0
1777225939745000,1777225939745000,1777225652689000,47.397742,8.5455943,-0.0315766,-0.018584423,-0.031158447,-0.0005730107,0.0002314337,-487.9991,-0.0051528276,-0.004123496,-0.04491543,-0.03565102,-2.551949e-05,-1.4980818e-05,4.813075e-06,-0.006648456,-0.041800346,-0.038702037,0.016718553,0.0003010001,0.014129968,0.0050611896,1.9055595e-05,487.9991,0.010009766,1e-04,-487.9991,0.12070591,0.11322627,0.080627896,0.049351797,inf,inf,inf,inf,inf,1,1,1,1,3,2,2,1,2,1,1,1,0,2,0,0
1777225939753000,1777225939753000,1777225652689000,47.397742,8.5455943,-0.031622857,-0.018565087,-0.031280518,-0.0005730107,0.0002314337,-487.9991,-0.0053329053,-0.004479839,-0.045294806,-0.035920534,-2.551949e-05,-1.4980818e-05,4.813075e-06,-0.023090944,-0.0484527,-0.059649345,0.01670256,0.00030110727,0.014107719,0.0050611896,1.9100044e-05,487.9991,0.010009766,1e-04,-487.9991,0.121113785,0.11347737,0.08092812,0.04943455,inf,inf,inf,inf,inf,1,1,1,1,3,2,2,1,2,1,1,1,0,2,0,0
1777225939761000,1777225939761000,1777225652689000,47.397742,8.5455943,-0.031667776,-0.018550973,-0.031402588,-0.0005730107,0.0002314337,-487.9991,-0.0048538106,-0.004839816,-0.04532749,-0.035848778,-2.551949e-05,-1.4980818e-05,4.813075e-06,0.059319425,-0.048762843,-0.015985684,0.0166769,0.00030121443,0.014075898,0.0050611896,1.9144525e-05,487.9991,0.010009766,1e-04,-487.9991,0.121524416,0.113729306,0.081229016,0.04951718,inf,inf,inf,inf,inf,1,1,1,1,3,2,2,1,2,1,1,1,0,2,0,0
